# index timestamp wx wy wz ax ay az
0 0.039346218109 -0.000685630042 0.003896188550 0.001393836747 0.147045422914 -0.451711661741 9.832836885452
1 0.046533346176 -0.000974961234 -0.003743756908 -0.000366176393 0.159897337966 -0.432320138477 9.809099528790
2 0.056556224823 -0.000278018803 0.002239336948 0.000592543655 0.134275295790 -0.436296135485 9.814954930544
3 0.066654443741 -0.001475813995 0.006251262994 0.000344432163 0.151183479158 -0.444492068030 9.836552206278
4 0.077785968781 -0.001261323027 -0.003216486122 -0.000740294545 0.132144351136 -0.441678314768 9.818297199011
5 0.087691545486 0.001066213187 -0.000101665159 -0.000301574743 0.137868985394 -0.452197711542 9.787048509121
6 0.096840620041 -0.003827313587 -0.004935409663 -0.002184622511 0.144802549761 -0.451149123050 9.799932264090
7 0.106595993042 -0.002502475469 0.005610772752 0.000425340473 0.134724763948 -0.450407294109 9.806326194406
8 0.115299940109 0.000705119102 0.001642526709 -0.001779580807 0.157883648258 -0.451614853777 9.799745737910
9 0.125632762909 0.001638722732 0.002580613759 -0.001554068669 0.145800431930 -0.449095398188 9.791295926571
10 0.135853290558 -0.002715453714 -0.000932346170 -0.000691287634 0.153414274156 -0.451808944792 9.835999059677
11 0.145729780197 0.000328685086 -0.002629542062 -0.000493125173 0.146852309480 -0.449397626147 9.826555806398
12 0.156656026840 -0.000645290629 0.003673330081 -0.001988430242 0.164826979302 -0.446592899524 9.815968837738
13 0.165674686432 -0.004229678736 -0.001646135240 0.001051319966 0.155092114415 -0.448144421652 9.804216518998
14 0.175200939178 -0.000193211053 0.000038854828 -0.001596987174 0.130805274798 -0.467972914651 9.807413776517
15 0.185452938080 -0.002728512046 0.003350489418 0.002629614363 0.117210571496 -0.446960031576 9.819896997213
16 0.197388410568 0.002867016449 -0.004323166614 -0.000505925901 0.128985237563 -0.457563299350 9.806263629198
17 0.206383705139 0.002626989433 -0.001347583698 0.000094755406 0.136534203105 -0.451761801615 9.807074638009
18 0.216687679291 0.000472468704 0.004999836316 -0.000741870985 0.137992480416 -0.451934659928 9.809727519751
19 0.225290298462 -0.004268514335 0.002736131964 0.003757244102 0.148859101301 -0.452672688179 9.811948292255
20 0.238927841187 0.000658329325 0.002982296994 -0.000338371749 0.151129319323 -0.456999481581 9.827036447525
21 0.247061014175 -0.000637724547 0.000025040135 -0.000100014231 0.144650677470 -0.457948594317 9.813658018112
22 0.257083415985 -0.000699463266 0.002040314550 -0.004344401162 0.138825717783 -0.455059813969 9.792885784507
23 0.264962434769 -0.002737261207 -0.002821349998 0.002664412568 0.120138948457 -0.422649282329 9.815541990995
24 0.275789976120 0.002199549737 -0.003745967019 -0.000853439620 0.126914528366 -0.436581187248 9.820245491266
25 0.285991668701 -0.001700982444 -0.000460099179 -0.000360097188 0.149878316671 -0.466562785506 9.832318822145
26 0.298338413239 -0.004005296752 0.000411948401 -0.002287639772 0.151695348071 -0.439280663989 9.846341614723
27 0.306138038635 -0.003238143291 0.002254887572 -0.001479521614 0.135632096501 -0.447579105534 9.803517776728
28 0.315466642380 -0.000731665539 -0.004606492104 0.002233607510 0.131295024790 -0.435998694934 9.812037169933
29 0.325746059418 0.000971421167 -0.001999708626 -0.000576374054 0.154312315118 -0.436805025972 9.824578278065
30 0.338455200195 0.002260397767 -0.001090585792 -0.001319259914 0.152672600532 -0.450961098522 9.801792848110
31 0.345500230789 -0.000327124445 0.002281435699 0.000745056376 0.151025074432 -0.470161381289 9.817491452694
32 0.355592250824 0.001923141704 -0.003706946248 0.000754852010 0.133667569086 -0.470944140740 9.833766592741
33 0.365957498550 0.000017473795 0.001235443030 -0.001056821578 0.153174118046 -0.458549761176 9.833437979221
34 0.375307798386 0.000407090895 0.005131908300 0.001420141704 0.126358713973 -0.460788842775 9.823132846355
35 0.386391639709 -0.000412205159 0.003092256159 -0.000148198071 0.109467533212 -0.472974549830 9.793155341148
36 0.396631717682 -0.002392205775 0.001208731187 -0.000807951580 0.110452606324 -0.465707082041 9.825124408007
37 0.409441471100 0.002119557507 0.001891328632 -0.003427445151 0.128129314827 -0.449704312608 9.835566365719
38 0.415411233902 -0.003174450049 -0.002266360231 0.000688400354 0.147121738214 -0.457123990729 9.824570091963
39 0.425363779068 0.000422454884 -0.000242497706 0.001608589220 0.138466653060 -0.461161858588 9.818346315622
40 0.437121391296 -0.000162434036 0.002492421515 0.000228625699 0.141779484451 -0.441388767958 9.780295559764
41 0.446344614029 -0.002212178166 -0.002209464811 -0.001820458769 0.129092131974 -0.448255591840 9.821483931541
42 0.455500841141 0.001492653157 -0.002701124659 -0.000665731886 0.119549494302 -0.452164638229 9.833386523724
43 0.467334985733 -0.000806333203 0.003098260495 -0.001264965628 0.127428096626 -0.439908983856 9.833252037764
44 0.475354671478 -0.000458667373 0.001346025073 -0.001114565556 0.143012598278 -0.445256079845 9.812624230385
45 0.485755205154 0.000622588091 -0.001037963459 0.000785150669 0.137079967596 -0.449549726844 9.801385881901
46 0.497081995010 -0.000469233347 0.001094915250 -0.001696934908 0.140365737341 -0.449423828982 9.824450808764
47 0.507287740707 0.003076193708 -0.002720478611 -0.004132334997 0.157567752432 -0.470151039027 9.822867382765
48 0.515184402466 0.000102337410 0.001590942267 -0.003564740728 0.150246545076 -0.473276595064 9.822128294706
49 0.525663614273 -0.005165544232 -0.000240792041 -0.001790918227 0.145754229790 -0.456329354122 9.809974272251
50 0.538912296295 -0.003619182866 0.002151962638 -0.001064039226 0.163148974590 -0.433464804031 9.801789339781
51 0.546497106552 0.001080868896 0.000035688260 0.002958487970 0.147210497120 -0.446818273142 9.820121530294
52 0.556097269058 0.000537575418 0.000805274830 0.000710912518 0.132584134843 -0.468791086301 9.806710941195
53 0.567677974701 0.001735884029 0.000420977239 0.000018820514 0.126897525759 -0.443048500121 9.810543791056
54 0.576023578644 -0.001172792036 -0.003252380540 0.001607272333 0.154633692708 -0.450542364791 9.820154274702
55 0.585622549057 -0.000754394279 -0.003182400781 0.002491085774 0.142031435492 -0.459416683987 9.811564714909
56 0.595568656921 -0.000858392540 -0.002176850320 -0.000045614863 0.150786215672 -0.450961135067 9.820169477463
57 0.607089281082 0.000763315934 0.005015868337 -0.001498791951 0.129905918213 -0.465357966721 9.805970098972
58 0.615653753281 -0.001107122358 0.003795869040 0.000279262869 0.130379935540 -0.445933150873 9.817354627848
59 0.625855207443 0.000026114187 0.001257952853 -0.003349756268 0.142090620277 -0.447153318599 9.824733814001
60 0.637790918350 0.002999242917 -0.002019702490 0.003124328264 0.136999632334 -0.467014080919 9.804772004485
61 0.646201133728 -0.003481783000 0.000461541811 -0.000305502645 0.138672246644 -0.478701239750 9.789623622894
62 0.656319618225 -0.001691808843 -0.005581210623 -0.002004534045 0.154799497817 -0.453155412376 9.791236869693
63 0.666007280350 0.000332014590 0.001155586299 0.001296515244 0.146120850211 -0.431195791997 9.805578920245
64 0.675415515900 -0.001121066503 0.001575101920 -0.001709545912 0.128963219142 -0.450478081964 9.823167929649
65 0.685595512390 0.002292615774 -0.000963147943 -0.001434962690 0.111359747015 -0.445478310585 9.804701253176
66 0.696564674377 -0.003474180507 -0.001826686639 -0.000039096831 0.136416811114 -0.432419687323 9.801770043969
67 0.706309556961 -0.000600691978 -0.004066966876 0.003640542511 0.137855929658 -0.438770896420 9.802813187242
68 0.716788291931 0.000067783870 0.002366401201 0.000710173191 0.142498902110 -0.457869803086 9.827915868759
69 0.725013732910 0.002697237329 -0.001160286752 -0.000815919282 0.136241065739 -0.455789509937 9.817147636414
70 0.735546350479 -0.001216103383 -0.004639255747 -0.000859382253 0.139840675648 -0.455383201540 9.805118744373
71 0.746827125549 -0.002449533439 0.003638988566 -0.003506944930 0.137579036588 -0.465703390986 9.808637014031
72 0.755863428116 -0.002116728418 -0.000097974159 0.000531656907 0.141176170567 -0.461212473549 9.788488093615
73 0.765955448151 -0.003220544582 0.002684965982 0.000314469358 0.141071678996 -0.468036028035 9.795431662202
74 0.775877475739 0.003536193929 -0.004214515103 -0.002793563657 0.148388784165 -0.449284409434 9.802536613941
75 0.785978078842 0.000826139358 0.002523823930 -0.002119328121 0.152883301293 -0.469320661314 9.821357631683
76 0.795632839203 -0.001971444008 -0.004024812729 -0.001983862687 0.155485504121 -0.455253100991 9.816838903427
77 0.807364702225 -0.001590697667 0.001631632455 0.001510301671 0.154511924442 -0.441483127400 9.803769791722
78 0.815192461014 0.004314641117 0.000216866747 0.003086976130 0.127921994487 -0.440460961014 9.803187409043
79 0.825726032257 -0.000251200898 -0.000161576278 0.000558567415 0.148732189313 -0.448231764436 9.801299927831
80 0.839237928391 -0.001645852149 0.004165847915 0.002335255480 0.126937743640 -0.435646071285 9.821872186661
81 0.846570014954 0.000867940909 -0.005192158158 0.001398863854 0.138853400694 -0.435961418934 9.810313410759
82 0.856930255890 -0.000027055896 0.000692857768 -0.000391482535 0.121228440050 -0.455634229816 9.793485708833
83 0.865578651428 0.000977406583 -0.001806572620 -0.000599034655 0.133541187001 -0.449780289866 9.816546542645
84 0.877518653870 0.000559702574 -0.001577440508 -0.001182800216 0.146651494168 -0.447707342282 9.838417468071
85 0.886335849762 0.002721797447 0.005358563594 0.000046210697 0.143832359640 -0.463732988946 9.830452390909
86 0.894941329956 0.001314840081 0.000322287452 0.000474566724 0.149579834584 -0.438367694356 9.819831508398
87 0.907555341721 -0.001328595932 -0.001538313886 -0.005276229785 0.146522206748 -0.432961906940 9.822755116224
88 0.916460275650 0.000410312956 -0.002597056438 -0.002993829210 0.135063281190 -0.455371507108 9.814020545483
89 0.925599813461 -0.000010702933 -0.005909857185 -0.000295722323 0.120532584842 -0.463327228725 9.782166084051
90 0.935648679733 -0.000036666091 0.003258203604 -0.001878593963 0.136901298612 -0.450531949438 9.811503903866
91 0.945807218552 -0.002028794818 0.001748722598 -0.000694560800 0.162578651793 -0.471015476771 9.830015019178
92 0.956387281418 -0.002571513759 0.002312300019 0.000176437462 0.143769684797 -0.452465514019 9.802086378336
93 0.965409040451 0.000924535423 -0.001000425566 -0.003435000310 0.153725638390 -0.443640494160 9.813669712543
94 0.975417137146 -0.002512708093 0.002887132678 -0.001468647257 0.159730436504 -0.463396335505 9.801964171529
95 0.986790180206 0.001044283395 -0.003116376752 0.001661098486 0.139421558194 -0.485874348097 9.815906857252
96 0.996467590332 -0.003683190019 0.002419654540 0.000927754428 0.139063690323 -0.477499636933 9.816529000998
97 1.007644176483 0.002657548946 -0.005645836492 -0.003240388253 0.132328246068 -0.455064455196 9.783413879871
98 1.015784502029 0.000637092631 0.001859432207 0.002060388387 0.135232603764 -0.435391425043 9.809075555205
99 1.025609493256 -0.000125515649 0.001865202866 0.002413460610 0.148921438102 -0.440732673816 9.802282260060
100 1.037904739380 0.000990720698 0.003090257748 -0.002355336078 0.151928715929 -0.445070101842 9.815206360817
101 1.046521902084 -0.001570096529 0.003131721657 -0.000321613080 0.168048429675 -0.485568502173 9.790946847796
102 1.057065010071 -0.002098260410 -0.001132454248 -0.002270304518 0.142004620526 -0.469100842550 9.805164937377
103 1.065519571304 -0.000758426537 0.000639197868 -0.002607285682 0.136659150794 -0.465722723342 9.802102165818
104 1.075814723969 0.003203572131 -0.002465601090 -0.002034637778 0.136440282203 -0.460013684705 9.823532795906
105 1.087336063385 0.000582355633 0.000209528246 -0.000980543469 0.138359868284 -0.457546671331 9.813934006691
106 1.097453117371 0.000041707173 -0.001732636090 -0.003744745190 0.153850988075 -0.411675227992 9.824694052935
107 1.108743667603 -0.002860982464 -0.006726099935 0.003712175302 0.133306868970 -0.425279067568 9.826821269989
108 1.115781784058 -0.000991469191 0.005616527676 -0.000772175951 0.137528293720 -0.454429849572 9.811888650656
109 1.125460624695 -0.003774075852 0.006747041640 -0.002034545061 0.121346115265 -0.469254843593 9.805176047087
110 1.140506744385 0.000015924168 -0.004384472894 -0.000242453444 0.138090795865 -0.464753693528 9.827139358521
111 1.146418333054 -0.001835966741 -0.000100597261 0.002465839579 0.130610809196 -0.441296345405 9.827534630299
112 1.154452085495 0.002583160667 -0.004097257733 -0.000821310493 0.141336996406 -0.438239055611 9.810327444077
113 1.165256023407 -0.002816139669 -0.000424051935 -0.001251998452 0.153144068839 -0.432647509463 9.792082961798
114 1.174947738647 -0.002418557286 0.001215456709 -0.001610029381 0.136663344344 -0.446838519126 9.791111739278
115 1.184909343719 -0.002330835777 0.001272095825 -0.000182194548 0.134675428066 -0.449658485055 9.821834764481
116 1.194885492325 0.000676441096 -0.002121291552 0.000901526907 0.125035690069 -0.478603700884 9.828783595562
117 1.208310127258 0.000729336768 -0.002400287325 0.001710315472 0.127813053550 -0.466490901299 9.807184565663
118 1.215205192566 -0.003920828512 -0.001108650555 -0.002170244692 0.128289400628 -0.451574032903 9.815386455059
119 1.224461555481 -0.002115980574 0.001766263571 -0.004257136604 0.122766769398 -0.442210338302 9.839322617054
120 1.234891176224 -0.004690246440 0.001120171198 -0.001478119424 0.121978436820 -0.464222071990 9.810378899574
121 1.245220661163 0.000167509923 -0.000527188310 -0.001154933122 0.117170472387 -0.443462629169 9.818235218525
122 1.254889965057 0.000522921335 -0.001031233776 -0.006535455572 0.124589309972 -0.449460118264 9.824029809237
123 1.264785051346 -0.003852616998 0.003804786729 0.000330499137 0.148266714402 -0.441441831440 9.825833090544
124 1.274931192398 -0.002341628601 0.000807146195 0.000837313516 0.142339547211 -0.450070275217 9.818373212814
125 1.286270856857 0.001481192982 0.000929970456 0.001390647716 0.126237786245 -0.460309188366 9.820119191408
126 1.295062065125 0.000680055024 0.002744531585 -0.003396512691 0.127351205740 -0.462288617045 9.825973423719
127 1.308185338974 -0.002169694115 0.002782225977 0.001369955292 0.126204119073 -0.458416335024 9.820633746386
128 1.314258813858 0.001446198941 -0.001285204742 0.001037539213 0.142366946898 -0.470603613518 9.821783308983
129 1.324920892715 -0.000875559331 0.002131167875 0.001440537253 0.152175788200 -0.486754207872 9.827159239054
130 1.335514783859 -0.003875407311 -0.002500130899 -0.002474245961 0.157011024412 -0.452355586365 9.835552332401
131 1.345465660095 0.000524132859 0.000868339148 0.000116091994 0.133731787959 -0.428312785774 9.827784891129
132 1.354123830795 0.002721919682 -0.001738096351 0.000794068487 0.125991892554 -0.436950146556 9.824989922047
133 1.365090131760 0.002618547680 -0.001224069070 -0.001314312910 0.137263369169 -0.445945576206 9.808597252965
134 1.375244617462 -0.001964923685 -0.003656788833 0.002686354258 0.130741129015 -0.452964464240 9.811563545465
135 1.384613990784 -0.003848590267 -0.000183571414 0.000987263530 0.137415972361 -0.463905701078 9.830610265732
136 1.394399881363 -0.000547417573 0.000547841950 -0.001155735711 0.142624736018 -0.449297492579 9.808406049013
137 1.408350229263 -0.000860094337 -0.000957231382 0.001961882115 0.146965909917 -0.447749478780 9.794194976091
138 1.414919853210 0.000724560048 0.000875831304 0.000710681117 0.136580058066 -0.464070958011 9.814449731112
139 1.426011562347 -0.000483292315 0.000473560984 0.000858285390 0.143037412399 -0.471879073977 9.808522408605
140 1.435101985931 0.002769522907 0.001578486787 0.001773858651 0.131393961506 -0.442103261165 9.825560610294
141 1.445290327072 -0.002626620127 0.000663580811 0.000107057938 0.139551576516 -0.488290234879 9.807324898839
142 1.456799507141 0.000096150209 -0.002602335167 -0.003599829695 0.129622794203 -0.461140004620 9.805080737472
143 1.464852333069 0.000440768667 -0.004850680049 0.001588175466 0.127970288834 -0.450096185692 9.799623531103
144 1.474554300308 -0.001951731415 -0.001276060138 0.000352036607 0.117159179952 -0.440224514231 9.799610667229
145 1.484122753143 0.000183661628 -0.002544373182 -0.003298512784 0.142208496490 -0.457108970694 9.808482647538
146 1.495655059814 0.002427676792 0.000101114589 0.003504226373 0.150213435218 -0.470883183517 9.819235092402
147 1.507778406143 0.001170382577 -0.002391036741 0.000075952659 0.126490769684 -0.452570288815 9.818926359415
148 1.515507936478 0.001335267749 -0.001496258437 -0.002390018550 0.151183798928 -0.448883144259 9.798654647470
149 1.524193763733 0.001305828506 -0.000764431198 0.001939458247 0.161059289351 -0.459356055669 9.818815262318
150 1.535785913467 0.000703262431 0.005776714215 -0.000290556336 0.136566499835 -0.465520044230 9.815422707796
151 1.546577692032 0.002301880402 -0.001032357297 -0.001893498693 0.135009139627 -0.459356238395 9.833055571318
152 1.555509090424 -0.000951977815 0.000512355198 -0.003766342282 0.126918877233 -0.455666864589 9.861822702885
153 1.564463853836 -0.002118530863 0.000809744402 0.000598090910 0.123496218687 -0.470318232849 9.831658086777
154 1.575138330460 0.001477609938 -0.000221122733 0.002285086882 0.133209540239 -0.468909602053 9.819874777794
155 1.585102796555 -0.000266819727 -0.000782921117 -0.001050483502 0.156019318365 -0.466842684411 9.811674642563
156 1.595685720444 0.003079302377 0.001728706758 0.001675476045 0.147412006790 -0.456244204044 9.837635110617
157 1.608307838440 0.000525867230 -0.002009339308 -0.000599921118 0.139228472169 -0.447169361897 9.825740704536
158 1.615208864212 -0.001822519338 0.000909976462 -0.000084706370 0.149870249340 -0.453251270168 9.820016280413
159 1.625398159027 -0.001895941311 0.007686276658 -0.001037089089 0.136635588342 -0.461292726584 9.830879237652
160 1.635517358780 -0.001832049111 -0.001482465786 -0.003234689764 0.112905696016 -0.460043432415 9.829822061062
161 1.644495487213 -0.000267321963 -0.002445172772 -0.002160192039 0.114242470013 -0.451541763581 9.799205455184
162 1.655256748199 -0.000546203351 -0.002050083072 -0.002400948954 0.136979322396 -0.446976001784 9.809662030935
163 1.664573907852 0.002268252011 -0.000120936382 0.001584433777 0.165722078383 -0.463988366090 9.846187248230
164 1.674891948700 0.001479485724 -0.001002325604 0.000376919348 0.153058699491 -0.453543557860 9.818083190918
165 1.685083627701 -0.002268253832 -0.003458271240 -0.001770988991 0.145870415792 -0.440083705969 9.816275231838
166 1.694872617722 -0.002047046314 -0.001207544207 0.001122920313 0.122122278325 -0.450052221939 9.819991722107
167 1.707614660263 -0.002899341087 0.002504020830 0.001246166155 0.134444271186 -0.448438828960 9.836697217226
168 1.714229106903 -0.004076129555 -0.001732906958 -0.003243109410 0.144905807935 -0.449614265487 9.836915903091
169 1.724816322327 -0.001169955795 -0.003216472858 -0.001470090929 0.158081137966 -0.464056705423 9.832276722193
170 1.734554290771 0.000195491385 0.000635586346 -0.000442681449 0.142520527672 -0.450692857504 9.814378395081
171 1.746163368225 0.000083780953 -0.000570493708 -0.005707039783 0.149965102142 -0.457289759293 9.815582921505
172 1.755404710770 -0.000369327746 0.000361669272 0.001090745738 0.137824774962 -0.458107126951 9.816329026222
173 1.764924049377 -0.002898080246 0.002539428129 -0.005453760160 0.135645197919 -0.458732194304 9.809980704188
174 1.774208068848 -0.002170146644 0.002792936878 -0.001820214559 0.140632361239 -0.469381143451 9.839457103014
175 1.784791946411 0.003480551288 -0.003176672644 -0.000568358823 0.142302161576 -0.460182559602 9.835127824545
176 1.796607255936 -0.000204079396 0.005014011927 0.002815084287 0.130707105529 -0.455963026062 9.830685110092
177 1.807351112366 -0.002188685912 -0.003855092125 -0.001425788568 0.134471652601 -0.471597165093 9.808182685375
178 1.814450502396 -0.000928760460 -0.001509229384 -0.002218007732 0.143424680801 -0.445613746718 9.793689191937
179 1.824419021606 -0.000426951699 0.001934781981 -0.000829010058 0.153818207122 -0.445399921350 9.797822003961
180 1.835240125656 -0.000413519087 -0.001083361903 0.001611184762 0.135821591970 -0.460106289983 9.805897593498
181 1.845453739166 -0.001717685848 0.003250054695 0.001261622372 0.145083197840 -0.462483219691 9.824802811146
182 1.854315042496 -0.000659656680 -0.000038382574 0.001597178719 0.130419541290 -0.476556736864 9.804218857884
183 1.864660978317 -0.001325102874 -0.001952409038 -0.002804869608 0.133722870955 -0.468424392790 9.826651700735
184 1.875684499741 0.000917481947 0.000266658269 -0.000791021002 0.143061897615 -0.432733390443 9.834957085848
185 1.884495258331 -0.001329077720 0.004217735083 0.000621646817 0.139388969103 -0.438399415500 9.841003106833
186 1.894959211349 -0.000886158010 0.001079174966 0.003105808632 0.147257521525 -0.443469792008 9.805666043758
187 1.904922246933 -0.004581658127 0.000692398347 0.002125864439 0.159340683036 -0.436846066117 9.822420655489
188 1.914863586426 0.001051992713 -0.006473416922 -0.000912791247 0.150854911320 -0.429690462872 9.804102498293
189 1.925282001495 -0.001285867411 -0.003132197333 0.000776562039 0.136354912855 -0.458905198798 9.815490535498
190 1.934589147568 -0.001590539802 -0.001107358246 0.001285781456 0.135533607462 -0.459665958099 9.803525378108
191 1.944506168365 -0.001255657437 0.001951293189 -0.000764519298 0.128801333494 -0.440268368348 9.813383198977
192 1.954644203186 -0.002580387755 0.003808542202 0.001250061288 0.125770045538 -0.451804303564 9.828726292849
193 1.965193510056 0.002668019018 0.003705818825 -0.001613461192 0.135205733981 -0.454561046474 9.827227066755
194 1.975106716156 0.003826678745 -0.005196482154 -0.000372072408 0.139378270525 -0.449601255432 9.853667006493
195 1.984271526337 0.001707802503 -0.000153108795 0.000383580891 0.134165039230 -0.434742201380 9.823122321367
196 1.995253086090 0.000893861542 -0.001180423657 -0.001341478194 0.137977643106 -0.448309057318 9.814380733967
197 2.010317802429 -0.002996226055 0.000180052836 -0.000945897798 0.138007281180 -0.466890193038 9.808946916461
198 2.014628410339 0.004463116769 -0.001508751758 -0.003658693098 0.151674791453 -0.459207974933 9.816206234694
199 2.025145053864 0.000224740855 0.000640270674 -0.000913269653 0.164268442299 -0.472260568254 9.846518200636
200 2.035975217819 -0.002048421067 0.002829636226 0.003979962391 0.143194921771 -0.460278161578 9.837313513756
201 2.045664310455 0.000654781456 -0.005235450130 -0.002975888243 0.144661960769 -0.442277581282 9.823008885384
202 2.056327819824 0.002313647204 -0.002012898425 -0.000290412548 0.152024683356 -0.455731951408 9.829594019651
203 2.065369844437 0.002699750947 0.007410331558 0.002462100490 0.158004411533 -0.454054312147 9.820270049572
204 2.075047254562 0.000258567503 -0.002762503761 -0.003220808817 0.163041093461 -0.453433776386 9.798072849512
205 2.086395502090 0.000345853144 0.000117138273 0.000150645160 0.134297752753 -0.455294433497 9.816730145216
206 2.095520019531 -0.000431117602 0.001474146918 0.000876869326 0.144262075173 -0.470143766552 9.830744751692
207 2.105047941208 -0.002686798985 -0.005584996785 -0.000516625391 0.135396371484 -0.475748578571 9.837064422369
208 2.114905118942 -0.003933609084 -0.001637864746 0.002253357295 0.140105554517 -0.468651410937 9.819803441763
209 2.124183177948 -0.003681191607 0.002021948361 0.001019534852 0.144109545071 -0.445431898311 9.802776349783
210 2.135942935944 0.001739001410 -0.001706868707 -0.005333497111 0.153196903914 -0.460368793420 9.823710551262
211 2.145978450775 -0.001026897296 -0.004956091294 0.003463541126 0.138994601816 -0.479831616171 9.796762488484
212 2.154757738113 0.002597628602 0.000150300431 0.001556207130 0.137533373488 -0.468509798683 9.785545774698
213 2.165139675140 -0.000305647442 -0.000426760251 -0.000415650949 0.129688721560 -0.454657123536 9.832971371412
214 2.174879312515 0.000899916267 -0.004390505058 -0.000222757772 0.129549164968 -0.473214797303 9.831644053459
215 2.186488628387 -0.000270842166 -0.002270485790 -0.001247431156 0.141626945212 -0.462592233717 9.813079143763
216 2.194382429123 0.001834554407 0.002766558059 0.002191803423 0.139149790574 -0.454885457307 9.803973274827
217 2.205214023590 0.000604138028 -0.002155395489 -0.000003190373 0.148189531155 -0.468386276253 9.794607204795
218 2.215664148331 -0.001496259478 -0.002845657065 0.001054015571 0.129025007766 -0.450468726419 9.823289551735
219 2.224731922150 0.001009483240 0.000876799951 0.001336411036 0.117551455032 -0.466751796752 9.811354215145
220 2.235509395599 0.001632499413 -0.002024270435 0.000497487919 0.151084670350 -0.460660167485 9.816216759682
221 2.244942426682 0.001113408225 0.004531531401 0.001965661255 0.153099538637 -0.458559847623 9.837163825035
222 2.254703521729 -0.004550101748 -0.004851833739 -0.000408415421 0.131138885859 -0.459258480258 9.839099253416
223 2.265503406525 -0.000819318388 0.002313730428 0.000549698230 0.131210011756 -0.450191860758 9.813364487886
224 2.275089502335 0.000599608509 -0.000644839075 -0.002621659209 0.155886933748 -0.445192052834 9.787783504128
225 2.284303665161 -0.003200078293 -0.003828880275 -0.001717344240 0.147966021337 -0.450648966841 9.812713108063
226 2.295113325119 -0.001612800993 0.000822305732 0.002240066716 0.148579394259 -0.451228462458 9.806899806261
227 2.304825305939 0.003434885357 -0.008001974120 0.001262476066 0.146769900285 -0.466670739725 9.823591268063
228 2.316275358200 0.000389988050 -0.002259193883 -0.002541857743 0.143804832045 -0.446274189726 9.826620125771
229 2.326010942459 -0.000906569553 -0.002856350541 -0.000453574922 0.142439836096 -0.451922051869 9.824760711193
230 2.336770772934 -0.000138283957 0.004726114850 -0.000033083718 0.142941627698 -0.422453839146 9.833385354280
231 2.344327449799 0.000006506216 -0.001045037480 -0.001074550325 0.144801572179 -0.434662861973 9.816828378439
232 2.353719472885 0.002550068550 -0.000814983665 0.001833798761 0.152209464507 -0.428298825547 9.812559911013
233 2.363547801971 0.003033251016 -0.001218402180 0.002267620551 0.122082142672 -0.447142866701 9.791933857799
234 2.377230405807 -0.003030891882 0.003780517113 -0.003347204419 0.116331314715 -0.453420547061 9.790247520804
235 2.384079217911 0.000711762961 -0.001269173240 0.000157092288 0.147061548438 -0.449183691144 9.822956260443
236 2.395156145096 -0.003819078333 0.001639524281 0.001646114564 0.162057482153 -0.461212071553 9.836796619892
237 2.407245874405 0.003739269325 -0.003802090018 -0.000494259519 0.150245805038 -0.462661450133 9.804573199153
238 2.414372205734 0.001946073368 0.001528666559 0.000574198207 0.155880392175 -0.444526310787 9.801772967577
239 2.424157381058 0.001938276599 -0.002082090159 0.000351690968 0.163229666166 -0.452289074287 9.817089164257
240 2.433950185776 -0.001356189168 -0.002345896421 0.000666216014 0.146945179710 -0.451104574576 9.818680776358
241 2.444793939590 0.002409730364 0.006369292525 -0.000679579413 0.139417309826 -0.447277498841 9.807177549005
242 2.453934431076 -0.001238110613 0.006478417631 -0.001281558239 0.141982921874 -0.452032016069 9.824081264734
243 2.466278553009 0.000374212429 0.001675519868 -0.000459800581 0.144111052556 -0.471243298911 9.818632829189
244 2.475370168686 -0.000909801692 -0.004616612116 -0.003053099368 0.139519617828 -0.462673290744 9.825731348991
245 2.483265876770 -0.001104850999 -0.000429819993 0.001429227401 0.138436083086 -0.458218004778 9.805724515915
246 2.494755268097 -0.001802670595 0.005688350842 0.000537771222 0.129193407577 -0.447938818932 9.823153896332
247 2.504999876022 0.002309075098 -0.003004629837 -0.000384685167 0.119839717196 -0.448696618080 9.825084646940
248 2.513907909393 -0.000691889446 0.002640250363 0.000511851272 0.124292901820 -0.454805606268 9.825148966312
249 2.523549318314 0.001881164928 -0.001491867212 0.001778028553 0.143636916457 -0.457583435699 9.819069031477
250 2.533629894257 0.001266133491 -0.003463113304 0.000888218644 0.137496216260 -0.451709761396 9.818115935326
251 2.543911218643 0.002656826200 -0.002683266916 -0.001383898917 0.142881428786 -0.452569082826 9.836133545637
252 2.553605794907 -0.001901553324 0.000609426965 0.000837166379 0.155877066571 -0.461240832545 9.805259077549
253 2.563702583313 0.003680641550 -0.003791384059 0.000023561748 0.152087979466 -0.471946755499 9.792782873511
254 2.575056791306 0.001770913830 0.000571615474 -0.002896222275 0.144910202483 -0.468426914401 9.811381112337
255 2.584836483002 -0.001990674164 0.004662020573 -0.001219423102 0.128057257030 -0.443037792407 9.833912773132
256 2.593946933746 0.000747924085 0.000863222251 0.001050734929 0.132058780789 -0.449160813913 9.838019857407
257 2.603736400604 -0.001092979126 -0.000064284725 0.001205701061 0.127639756696 -0.456782220975 9.800918104649
258 2.614482164383 0.002803251686 0.001172203097 0.004614641793 0.141421854123 -0.455409477465 9.813790165186
259 2.623608827591 0.000522853066 -0.001210423490 -0.000386031117 0.158688334767 -0.454138914049 9.838708659410
260 2.634973764420 -0.001076959978 -0.002629391219 -0.002686134496 0.137914703311 -0.451036819965 9.839619655609
261 2.645212888718 -0.000244736556 -0.001257470416 -0.001230282376 0.147727007261 -0.459843713455 9.807119076848
262 2.654803752899 -0.002702907729 0.003462756742 -0.000586120664 0.156720125433 -0.447236166336 9.815331491232
263 2.664494991302 -0.002376192999 -0.003599535031 0.001404441538 0.131353021860 -0.438583164252 9.802449490428
264 2.676618337631 0.000608379255 0.001443006919 0.002075722109 0.147428981988 -0.451491550617 9.786599442959
265 2.683674335480 -0.002271377324 0.003237736795 0.001536952787 0.141488229157 -0.445880599022 9.794477396607
266 2.693276405334 -0.002141533267 -0.003764931899 -0.001386727485 0.144695034083 -0.458144695312 9.801880556345
267 2.704249143600 -0.001048321634 -0.004596479242 -0.001505390037 0.139881971609 -0.462824952900 9.802907327414
268 2.715564966202 -0.000895187921 -0.000006588375 -0.001630228444 0.150017032726 -0.466681081988 9.802775765061
269 2.724045276642 -0.000831444679 0.004429055355 -0.002836723512 0.147061018534 -0.449311452806 9.818651540279
270 2.733677625656 0.001178890389 -0.001899515902 0.000807881815 0.146991975708 -0.461349663846 9.818561493158
271 2.744239091873 0.001834527099 -0.002759900417 -0.000337624230 0.153629488237 -0.457756038196 9.793423143625
272 2.753663539886 -0.001035779485 -0.002914276375 0.001980650639 0.145105755301 -0.437628350481 9.808023056388
273 2.763975381851 0.000483591043 -0.004172368238 -0.000591478065 0.143158294447 -0.450875363722 9.801652514935
274 2.775307416916 0.000183772371 0.003463864139 0.001924118673 0.130740133161 -0.456821653135 9.836048176289
275 2.783785104752 -0.000990071162 -0.006331986423 -0.002809633390 0.137202092176 -0.450656897128 9.845880854130
276 2.794504165649 0.000778194201 0.000261653106 0.000275367898 0.139960835930 -0.461444936916 9.817278614044
277 2.804013490677 -0.002637830891 -0.001472188689 -0.001441647120 0.122300654948 -0.449658740871 9.822974971533
278 2.814593076706 0.004739875903 0.002897290141 -0.001487425403 0.138539523985 -0.463015974127 9.855607112646
279 2.823140859604 -0.001351957108 -0.004710817799 -0.001087582909 0.149111088887 -0.473728877194 9.851498858929
280 2.834078311920 0.000042314162 -0.004055665606 -0.002625224308 0.147219660804 -0.470997350402 9.823336329460
281 2.844818592072 0.002025021010 -0.000661386174 0.002181345055 0.153040490896 -0.431912404820 9.818934545517
282 2.855062246323 -0.002776222161 0.000438454786 -0.001083078422 0.143757624915 -0.434072366282 9.808267470002
283 2.863606691360 -0.001213539441 0.000334275936 0.000077435578 0.138119675629 -0.470617062114 9.819654922485
284 2.875969171524 0.000300571246 -0.000567104095 -0.001360566479 0.164025581852 -0.453840779141 9.821058254242
285 2.883841037750 0.000191445929 0.002483984184 -0.000332027171 0.162817912549 -0.458732669391 9.820144919157
286 2.896388053894 -0.003260787442 -0.002416203874 0.003318273751 0.160340118371 -0.466707467549 9.824604005814
287 2.903438329697 -0.002225164978 -0.001557143397 -0.000389284451 0.149856544929 -0.477457134984 9.823433393240
288 2.913956880569 0.001839244978 0.001249950757 0.000528545345 0.125779620353 -0.473479054905 9.825750060081
289 2.924643278122 0.002774447154 -0.003137821961 0.001256402810 0.153492078669 -0.440964260101 9.846540420055
290 2.934942960739 -0.002094038884 0.005495872955 0.000259302961 0.146789351413 -0.444122706726 9.821212620735
291 2.944616794586 -0.002081694976 0.000910066838 -0.000606719981 0.138503170749 -0.465569051206 9.821441831589
292 2.954351663589 0.000547316144 0.000291672283 0.001491714679 0.138606127426 -0.441021416634 9.796170165539
293 2.963864803314 0.002924676487 -0.000657175245 0.000631764619 0.142901839223 -0.465228743255 9.807158837914
294 2.977157831192 -0.002683134538 0.000570573031 0.002752571002 0.129770070948 -0.470859831199 9.808935222030
295 2.983699083328 -0.002640007713 0.004204111870 -0.000839108809 0.135802497156 -0.455657180138 9.817484436035
296 2.993763685226 0.002318216710 -0.000331651526 0.002309428279 0.134304257780 -0.454338450283 9.824545533657
297 3.004757404327 0.002888674398 -0.000276413820 0.003711030715 0.146103518698 -0.468742992952 9.833188887835
298 3.013627767563 0.001123415755 -0.003286532720 0.005624292976 0.149247758416 -0.459275035188 9.833263732195
299 3.024485349655 0.000177298633 0.004525765554 -0.000221291928 0.130194907710 -0.458028774261 9.799764449000
300 3.033595800400 0.000416630714 -0.002697994925 0.000646048421 0.137314367853 -0.440206716768 9.797855917811
301 3.043867111206 -0.003314083954 0.000000952352 -0.001045681555 0.154832881764 -0.444398512580 9.807386294603
302 3.055869817734 -0.000626856106 0.003881784334 0.000604674237 0.146051661205 -0.456925916299 9.815128008127
303 3.064106702805 0.000148751185 -0.000089369739 0.002027641909 0.150774448151 -0.433111339845 9.823990048170
304 3.075416564941 0.003245376738 0.000714725793 0.001702240034 0.177986174673 -0.433039126731 9.819126334190
305 3.084699869156 -0.001906335571 0.002944068149 0.000527045366 0.166510922592 -0.434517631754 9.812914252281
306 3.094388961792 0.000549818840 -0.000481212175 0.001824016976 0.149886045959 -0.416649746709 9.812323683500
307 3.104453802109 -0.002638273278 0.002010322779 0.000520198910 0.141358219972 -0.459319035485 9.804144598246
308 3.113696575165 0.003161730594 0.000323501544 -0.001547830526 0.140466811946 -0.452296017855 9.819139198065
309 3.123903274536 -0.002755393329 -0.003583779729 0.001554975938 0.146422466040 -0.443646743372 9.826159365177
310 3.134716272354 -0.001818622904 0.001516662048 -0.001969573814 0.156016065851 -0.462287922688 9.807720170617
311 3.144188404083 -0.001989697325 0.001542610444 0.001373206221 0.135016366420 -0.472235242501 9.816952339411
312 3.153611660004 -0.000661378632 0.000768837897 -0.003308787800 0.137829617187 -0.458306517005 9.801070132256
313 3.164242982864 0.000677347390 -0.002631480396 -0.001896457038 0.127950938204 -0.457944281995 9.795034051538
314 3.176465034485 0.005273354403 -0.006840364110 0.001339819180 0.130777418297 -0.445140341520 9.806926703453
315 3.184418201447 -0.001468583668 -0.001547321170 0.000935821023 0.133056151327 -0.469159972519 9.814711686373
316 3.194552183151 -0.001004181429 -0.004836188187 0.000598129791 0.131577463578 -0.470269518234 9.807478095889
317 3.203660964966 0.000459456145 0.002435360168 -0.002486148263 0.124874306917 -0.468098885603 9.807630123496
318 3.214428186417 0.002558426819 -0.004909248267 0.001119069783 0.135497519178 -0.469364917427 9.814311736822
319 3.224447011948 -0.002464596944 0.000898661278 -0.001492286452 0.138454647996 -0.464939671531 9.832529321909
320 3.236248970032 -0.001787196563 0.005690257187 0.002039417814 0.128967915187 -0.452636252716 9.798842343092
321 3.243673801422 0.002900741327 -0.001426857474 -0.000060899589 0.151967828320 -0.455580362342 9.803312539458
322 3.254431247711 -0.002545483700 -0.001164018949 -0.003327589613 0.154520896263 -0.452765695453 9.806646621823
323 3.264489173889 0.001591645117 -0.001763446316 0.000989702312 0.152981114248 -0.442115905769 9.818466768265
324 3.276994943619 -0.001418526123 -0.002573783947 -0.002145744130 0.133654102217 -0.445415599197 9.844295089245
325 3.283537387848 0.001733278214 -0.000903022660 0.001697049470 0.146333451318 -0.463394252434 9.819459625483
326 3.293872594833 -0.003442225955 0.002309022303 -0.002180612425 0.151498963851 -0.470802309215 9.838678253889
327 3.305121183395 -0.002650897805 0.006267453661 0.003143994045 0.137746678088 -0.466477269977 9.832341041565
328 3.314664125443 -0.003114691991 -0.001752081848 -0.000808169652 0.136321620271 -0.443571606651 9.808793719411
329 3.323368072510 -0.002553408945 -0.003289221368 -0.000941155863 0.120203715507 -0.432676453181 9.806447231770
330 3.334254264832 -0.000891480691 -0.000219839575 0.002729043638 0.138434648691 -0.453106332310 9.781584286094
331 3.344340324402 0.002812522815 -0.000285711022 -0.002345809556 0.139780102149 -0.461462003477 9.825496290922
332 3.353688240051 -0.001857924426 -0.001065440181 -0.001410137555 0.147652610578 -0.442086486965 9.832141066790
333 3.363679170609 -0.004937279598 0.000151525722 -0.003247884375 0.159604794458 -0.439085111171 9.836261014938
334 3.375651359558 -0.001210642863 -0.002480039377 -0.002269058242 0.159222185556 -0.461346301697 9.812869813442
335 3.384906530380 0.001282013109 -0.005481639087 -0.003039944809 0.150939540630 -0.454549863674 9.812303802967
336 3.393595457077 0.001342848525 -0.001677922954 -0.001206256319 0.129970648717 -0.458066963889 9.830372868776
337 3.404103279114 0.001075887562 -0.001933065620 -0.001556195557 0.140822788607 -0.461117821746 9.821320209503
338 3.413991212845 0.002640473246 -0.000358428811 -0.000954251060 0.148223006465 -0.460985820852 9.802710276246
339 3.424099206924 -0.004290028464 0.003301227960 -0.000119240242 0.151947289975 -0.454318606295 9.808120120168
340 3.434364557266 -0.000912825316 0.000007948296 -0.001064034805 0.143124462822 -0.468448366374 9.819633872509
341 3.444163560867 -0.001149713170 0.004378664394 0.000208823152 0.125647473279 -0.462804670371 9.826381559372
342 3.453558206558 -0.000859901947 0.003895028099 -0.000664287173 0.146527085518 -0.448933357224 9.823641554117
343 3.465300083160 -0.001206274915 0.000183457908 0.002270818165 0.137422769750 -0.430577814393 9.817582669258
344 3.476289272308 -0.001914228827 -0.003868444081 -0.000398285624 0.145347903119 -0.441425824687 9.806891620159
345 3.484368801117 -0.001548370050 0.000487346906 -0.001254592303 0.160283162836 -0.446599806547 9.791106476784
346 3.493746995926 -0.001341766746 -0.001171598685 0.002241887497 0.150591357211 -0.454459999278 9.794993121028
347 3.504930734634 -0.002329457123 0.000731680298 0.000257287905 0.135792703070 -0.451493597142 9.831359878778
348 3.514384508133 -0.000863823932 0.005104481382 -0.001120776000 0.137545122737 -0.467659869343 9.808756881952
349 3.523751974106 -0.002001703786 -0.000568235678 -0.001216260728 0.121138831470 -0.446321369447 9.814842664003
350 3.534082174301 -0.002643184001 -0.000369769644 0.002911393191 0.154256017394 -0.455381483920 9.829991630316
351 3.544174432755 -0.001197053719 -0.003078124240 0.000638882983 0.150937813874 -0.458264892139 9.803149986863
352 3.555067300797 -0.001945240219 0.003354272719 0.000733181642 0.126231436534 -0.444314897396 9.808109595180
353 3.564362287521 0.001407972437 -0.000314406322 0.000404925874 0.137762008756 -0.465973934345 9.808732908368
354 3.576059103012 0.002991374108 -0.006357899709 -0.001052665265 0.140559883174 -0.463981495611 9.816785109043
355 3.584102392197 0.000454341069 0.007745603253 0.003109342522 0.140941094225 -0.449995759763 9.800536281466
356 3.593878030777 0.000487352400 0.002162301762 0.000117792628 0.139293120448 -0.434969036803 9.838748420477
357 3.605005264282 -0.005400882888 0.004081984088 -0.002924217196 0.142365375459 -0.452866852283 9.823310601711
358 3.614637136459 0.002658498478 -0.002827249784 -0.001248962864 0.152298798999 -0.469510001466 9.802623152733
359 3.622539281845 0.002964573709 0.000200063995 -0.001445729507 0.141943142535 -0.462193855606 9.811026771069
360 3.633120059967 -0.000814391475 0.001184223733 0.002307380714 0.153086199677 -0.454285057895 9.802579298615
361 3.644792795181 0.000144739798 0.000081656901 0.000839711141 0.139469167320 -0.442716232091 9.823355040550
362 3.653440713882 -0.000771024602 -0.004592380991 0.000725854308 0.139977052817 -0.444362442568 9.845339401960
363 3.662624597549 0.001061567414 -0.002434242109 0.002084371401 0.139136789655 -0.441677254960 9.847723896503
364 3.672890663147 0.001358584842 0.003474375823 0.000202349691 0.139898453448 -0.445855711810 9.823718737364
365 3.683431148529 -0.001064299040 -0.002430912637 0.004281555502 0.118474620748 -0.467133985385 9.815392302275
366 3.692861318588 -0.003383799997 0.003241802537 -0.001489402488 0.134189195540 -0.441990958080 9.812441797256
367 3.702664613724 -0.002228131645 0.001234602730 0.000509305827 0.136509096622 -0.421338994391 9.806673519015
368 3.713106155396 0.003377287736 -0.003218139674 0.001598579219 0.140455318512 -0.457502817214 9.822877907753
369 3.722915410995 0.000967756200 -0.003386282147 0.000455962730 0.147784666289 -0.465192929059 9.812021967173
370 3.733361482620 0.004063260037 0.000879904978 0.000356614890 0.168428462148 -0.463782178648 9.812736496925
371 3.744075536728 -0.001643132292 -0.001044491910 0.000010739054 0.155475107040 -0.460438521467 9.816136068106
372 3.752661228180 -0.000180160247 0.000364332043 -0.002179141055 0.123178861057 -0.472775817588 9.809805287719
373 3.763334035873 0.003040160411 -0.002690441586 -0.002049422483 0.145390295433 -0.454670097046 9.814964286089
374 3.773877143860 -0.000710325595 0.004355243141 0.003291473352 0.134250271535 -0.448256944008 9.844089267254
375 3.783153772354 0.000225190036 -0.000507451919 -0.002691292290 0.138026494766 -0.438426166512 9.838187087774
376 3.792492151260 0.003390112522 -0.002678133049 0.002027305893 0.136846316513 -0.458503385447 9.817786152363
377 3.803410291672 -0.000340185962 -0.003866669594 -0.001345791396 0.126894848831 -0.462423029914 9.811682828665
378 3.814024686813 0.002128636701 -0.003364029407 -0.001837456967 0.131774003115 -0.458879105598 9.818670251369
379 3.822651624680 0.000088420654 -0.000719518962 0.003932789850 0.134737710049 -0.443691036031 9.838923836946
380 3.832503795624 -0.000093856874 0.000636699724 0.001057542374 0.148561834339 -0.446205521487 9.822764471769
381 3.845378875732 0.000641751928 -0.003192367089 -0.000427730946 0.152561603934 -0.459806583636 9.823296568394
382 3.852769851685 -0.001883826788 0.000457095646 0.000137377679 0.124107691264 -0.460393315181 9.831262814999
383 3.863795518875 -0.001923729862 -0.005914417849 0.001066405512 0.134075083472 -0.463477246352 9.828950825930
384 3.872473478317 0.004021114992 -0.004286488592 -0.000038990615 0.134858016511 -0.442122812793 9.804015374780
385 3.883734464645 0.003588700075 0.004572368792 0.004552433055 0.123920114413 -0.455362736285 9.804990690351
386 3.893360614777 0.001297453202 0.000003866476 -0.006907403989 0.129941494865 -0.466193680018 9.809490122795
387 3.903086423874 -0.002953907541 -0.003297593681 -0.000271323596 0.152424495863 -0.475863074362 9.811397484541
388 3.912754058838 -0.003602783360 -0.003321059407 0.000416872973 0.143744021002 -0.448205342330 9.819720411301
389 3.922889232635 -0.002191851537 -0.005803392639 -0.001150385202 0.137735741967 -0.462916681096 9.814255603552
390 3.933351516724 0.001222543344 -0.001885851337 -0.000301720417 0.140995235788 -0.468961423002 9.807524873614
391 3.945729494095 -0.002725482961 0.003202704783 -0.002602686267 0.135219685072 -0.450867616162 9.807230758667
392 3.952292442322 0.001280387645 0.000137126122 0.000170994903 0.133203318436 -0.449326363206 9.817665699720
393 3.962882518768 -0.001773484144 0.001753779743 -0.005209287173 0.142361254999 -0.472896708772 9.827717063427
394 3.974500417709 0.000930244444 -0.000233260337 0.001387616549 0.138720641490 -0.478341197446 9.823600623608
395 3.982852935791 0.003993521366 -0.000792066045 0.001902121067 0.130560258189 -0.462271842845 9.807820742726
396 3.992701292038 -0.003794147608 0.001652662975 -0.000771877125 0.132871991443 -0.454969218671 9.795208883286
397 4.003208160400 0.002208107223 -0.004946721856 0.000989307844 0.135103279799 -0.465273437910 9.802077022791
398 4.013703823090 -0.006128530799 0.003246571780 -0.002675349213 0.139173188573 -0.454968012683 9.805198851228
399 4.023276567459 0.003772740631 -0.002060143137 -0.000816593915 0.146474743802 -0.459097279832 9.818285504580
400 4.033166170120 -0.001368792240 0.003419058534 0.002510012162 0.116787963985 -0.461490252838 9.817378016710
401 4.043619632721 -0.002494032936 -0.003692057773 -0.000309607138 0.115765505238 -0.460685785599 9.829990460873
402 4.055830717087 -0.000373435457 -0.002758859079 -0.002188889030 0.151835059980 -0.459421836846 9.828977723122
403 4.063165426254 0.000775290276 0.000845608262 -0.002013371890 0.159621550385 -0.449442722797 9.817347611189
404 4.073611259460 0.000657200278 -0.000059901371 -0.000845342986 0.138968746159 -0.466770946383 9.822490822077
405 4.083712339401 0.000079513052 -0.001219554960 0.002277293755 0.146839427333 -0.462030718289 9.829273592234
406 4.092999696732 -0.002886870783 0.004075554010 0.001398696366 0.153542510904 -0.454156601876 9.815938432217
407 4.104167699814 0.001525416150 0.007711774345 0.002816513136 0.152463178849 -0.445887250230 9.819757833481
408 4.113377332687 -0.002019376226 -0.006604441327 0.000476530382 0.141996681103 -0.452716249935 9.810226871967
409 4.123113393784 -0.000438004045 0.000403394589 -0.000983880808 0.147128471648 -0.456481564455 9.824899874926
410 4.133217096329 -0.003040453254 -0.001475840782 -0.000197319723 0.154592981469 -0.463138582930 9.815704543591
411 4.144540071487 -0.000964148969 -0.002598479825 0.000472892463 0.126702493709 -0.448162986562 9.812459338903
412 4.152490139008 -0.002413328752 0.001215957352 -0.001926423842 0.132137215706 -0.456246250570 9.812706091404
413 4.163014173508 -0.002203927308 0.000450843134 0.001406169081 0.143926636856 -0.451299250312 9.827347519398
414 4.172753572464 -0.000544594629 -0.002217277443 -0.001212922414 0.143297531269 -0.454074375406 9.833013471365
415 4.183482408524 0.001766166043 0.001917416168 -0.002371235722 0.130286142547 -0.469939662181 9.825643640757
416 4.193117856979 -0.000872072645 -0.005051067317 -0.000252688751 0.150341735920 -0.459034787714 9.840207885504
417 4.202866554260 -0.001459451158 -0.000443642099 -0.000236197828 0.131229133978 -0.446207202561 9.821348276138
418 4.214628696442 0.001357661969 -0.000103452633 0.000068753931 0.126631249040 -0.436851365156 9.843007532358
419 4.222802877426 -0.001345525600 -0.004139854786 0.001348190192 0.141223925874 -0.451548122428 9.817248208523
420 4.232938528061 0.001896081751 0.001281817273 0.000806265648 0.131050464995 -0.462155373618 9.817317205667
421 4.245984554291 0.000484919405 -0.005031705303 -0.003288640882 0.138699637195 -0.448424832188 9.812600841522
422 4.252403020859 -0.002382158844 0.000980991902 -0.002176067626 0.130582769969 -0.462645918466 9.816144254208
423 4.263387918472 0.001511872650 -0.000017491132 0.001980461695 0.120973437494 -0.460108592324 9.819679480791
424 4.273087978363 -0.003276391122 0.002770405339 0.002793911376 0.144638014594 -0.455572870597 9.828854931593
425 4.283997535706 -0.000990483250 -0.001650180306 -0.001825016701 0.139848112576 -0.458744254187 9.818133476973
426 4.292365074158 -0.000404713653 0.001727955013 0.002549826161 0.154729440864 -0.450586328544 9.813857992887
427 4.303295612335 -0.002233437942 -0.003133101092 -0.001517181417 0.139535158630 -0.456649562269 9.802316173911
428 4.314408779144 -0.003396026092 -0.002937333004 0.000541415383 0.140689965449 -0.466313876845 9.822895449400
429 4.322905540466 0.000846199736 0.000188607510 -0.001449231278 0.154704772923 -0.467554436736 9.799838708639
430 4.333172798157 -0.000985932729 0.000010009874 0.002101963348 0.158738109190 -0.462397777252 9.811836025715
431 4.343877315521 -0.001799514073 0.003486754060 0.000773164623 0.147561850827 -0.441315641217 9.830163538456
432 4.354185342789 0.002123580206 0.003328944341 0.005962217949 0.146066416288 -0.431662582532 9.816733653545
433 4.363280534744 0.005834324319 -0.002931023861 0.003449845872 0.165229066741 -0.438323182426 9.810392932892
434 4.372961044312 -0.003347450969 -0.004386338667 -0.002812328800 0.128566531241 -0.444834020510 9.811264168024
435 4.382863998413 -0.003828118257 0.003405982777 0.000860765458 0.131920886999 -0.429540299065 9.830548285246
436 4.393148899078 -0.001531532968 0.001131380791 -0.000936073360 0.130962436991 -0.440125477016 9.850330585241
437 4.402488470078 0.000178159235 -0.003521921831 -0.001840309202 0.150297671668 -0.458550199717 9.833285951614
438 4.413242101669 -0.001140509790 -0.007300694625 -0.000454891939 0.135444812011 -0.476916559897 9.818901801109
439 4.423285961151 0.000157470696 0.003347577886 0.000320955709 0.122547425721 -0.458247752488 9.816893867254
440 4.434403657913 -0.002478395447 -0.001365574860 -0.001192948056 0.126769033195 -0.450220841020 9.827203677893
441 4.444847583771 0.004816105248 -0.004235950689 -0.000326694997 0.131790046412 -0.461805088855 9.827941596508
442 4.452934265137 -0.002319738665 -0.002613840335 -0.001168484945 0.129254638888 -0.465812112652 9.818063310385
443 4.462583541870 -0.002331584531 -0.001740643389 -0.002653407523 0.131610034397 -0.439042426497 9.823809953928
444 4.473524570465 -0.003121572517 0.002444734807 -0.000837113909 0.165136552826 -0.441595540121 9.837632771730
445 4.483002424240 -0.001332445942 -0.002959146478 -0.001034220989 0.161788418870 -0.438027057499 9.852898682356
446 4.493179321289 -0.001059843317 0.001569296931 -0.000844636169 0.143826311426 -0.422211252786 9.826797881126
447 4.502669811249 -0.001530570043 0.000472301476 -0.002537647920 0.117052577902 -0.465129852220 9.836664472818
448 4.514447689056 -0.002704848404 0.000141589209 -0.002786531507 0.112103750389 -0.486277257800 9.844579263926
449 4.524264812469 -0.000249447640 0.000229666988 0.000934419613 0.116871633986 -0.480865769349 9.848705059290
450 4.533050298691 0.004267814995 -0.002101727461 0.001828768144 0.139384373557 -0.459868417941 9.828479540348
451 4.544514656067 -0.002555828416 0.000514350618 -0.003639585697 0.127021541549 -0.466113463528 9.799950975180
452 4.553265094757 -0.003818745698 -0.001186398864 0.000731772429 0.128743619649 -0.481202349700 9.809379610419
453 4.563151597977 0.002117366771 0.001775936125 0.002719480445 0.137454902027 -0.446962224282 9.823163251877
454 4.573775291443 0.000045807285 0.006485481770 -0.002121289212 0.158549774028 -0.454512149133 9.812720124722
455 4.582419872284 -0.001682648505 0.004811331324 0.001937819779 0.133129807971 -0.460001222827 9.819735614061
456 4.592731475830 -0.001393462500 0.005103891013 -0.000623365843 0.137827049894 -0.472055806071 9.799649843574
457 4.604088783264 0.003357299984 0.002566004604 -0.002245881718 0.150162025401 -0.447469177879 9.797806801200
458 4.613351345062 -0.003944460946 0.000214247815 -0.003145436677 0.149515451258 -0.449289160296 9.815325644016
459 4.623116254807 -0.002670987767 0.002815570886 0.004138383286 0.139925661273 -0.450787290037 9.820015110970
460 4.633126974106 0.000695602462 0.001111790042 -0.001494110744 0.124529631827 -0.464382249154 9.796977081299
461 4.644961357117 -0.000590136472 0.002609925176 0.001338407106 0.126171877161 -0.458038824163 9.797072975636
462 4.654490470886 0.003126109253 -0.005790435737 -0.001322549984 0.156393631529 -0.449650225863 9.823039290905
463 4.663348436356 -0.003221148474 0.001526154891 -0.001100080846 0.147476691613 -0.442356555238 9.838526226282
464 4.672832489014 0.001263566688 0.002868097838 0.002169064605 0.142377490159 -0.431512674540 9.832302449942
465 4.683334589005 -0.003356699213 0.001732696688 0.002789443039 0.135193939051 -0.450103494711 9.816610862017
466 4.693664312363 -0.002209162604 0.001746813132 -0.001137181359 0.123587435251 -0.451770316623 9.825485765934
467 4.704302072525 0.001141596641 -0.003012024790 -0.005364530219 0.144081414482 -0.439513163902 9.831245273352
468 4.713416337967 -0.001691618078 0.000097686607 -0.001566952231 0.154862154387 -0.443666331545 9.824857774973
469 4.722791194916 -0.001950003221 0.001236306087 0.001420106724 0.138189696036 -0.453939012364 9.809237523079
470 4.734915733337 0.001030177549 -0.000236366567 -0.002125987974 0.141611495772 -0.449342552684 9.818956764936
471 4.744359970093 -0.003505354056 0.002701556643 -0.004149725907 0.146591770342 -0.471357209980 9.819895827770
472 4.751808166504 0.001202416712 0.000749604230 0.001202279263 0.131592666339 -0.439775484614 9.805016418099
473 4.764556407928 0.001763288580 -0.001528845880 0.004723653507 0.128104564659 -0.452700133547 9.815218055248
474 4.772137403488 -0.001575019476 -0.000530974082 -0.000142321074 0.102444095314 -0.464244401045 9.826678597927
475 4.782326698303 -0.002898229009 -0.000905182837 -0.001818814579 0.085678538326 -0.506204386018 9.824350236654
476 4.792252779007 0.004126057323 -0.006031982367 0.002758493155 0.056450920254 -0.626167653054 9.827828160524
477 4.801813364029 0.002171340385 -0.001142635638 0.002326846497 0.068032957111 -0.693075953051 9.797788090110
478 4.813207864761 0.008559440315 -0.003085925430 -0.001736764510 0.103328623725 -0.626601735726 9.812128386497
479 4.822506666183 0.005762302977 -0.000158102710 -0.001231289123 0.184469804931 -0.503746655099 9.820539021492
480 4.831828832626 0.008667408091 -0.005767935666 0.004641075747 0.252904465757 -0.464933203049 9.831455773115
481 4.842746734619 0.009412886697 -0.002735552778 -0.000897622151 0.260192325711 -0.438490595520 9.824879994392
482 4.853672981262 0.007963887795 0.006508454135 -0.009035241092 0.268755408581 -0.364659301825 9.826616617441
483 4.862319946289 0.005640972582 0.003219469694 -0.002946189315 0.309692733809 -0.360031084456 9.817430641651
484 4.872991561890 0.007795057426 0.004613315414 -0.000892119694 0.340541145243 -0.307705740295 9.808127721548
485 4.881760835648 0.005656785101 0.005200383789 -0.009953640516 0.280984293669 -0.246876753867 9.819444422722
486 4.892742633820 0.003975071434 0.009388916166 -0.005280791488 0.215191843417 -0.270590063855 9.824623886347
487 4.901993751526 -0.001721439891 0.011024283289 -0.002569387131 0.156126139686 -0.348639210016 9.802285183668
488 4.912906885147 -0.000020027745 0.006562879369 0.001536311704 0.132117782850 -0.351400923058 9.825641301870
489 4.921763658524 -0.005515528852 0.014869540444 -0.003510131621 0.086135406867 -0.359038629234 9.822599580288
490 4.932118654251 -0.005656265473 0.006492114185 -0.005762005452 -0.014939979744 -0.373934886195 9.814083695412
491 4.944447040558 -0.008498077859 0.003127968265 -0.001107080877 -0.037986849903 -0.325586343035 9.815654257536
492 4.951955556870 -0.008537996667 0.001069052679 0.000664300957 -0.041643143543 -0.245525243059 9.798060570359
493 4.962253093719 -0.011891338840 -0.000934117341 0.006594279183 0.052959447289 -0.368038005754 9.806467697024
494 4.972308397293 -0.009008626125 0.000938043943 0.011353339728 0.236323808692 -0.588140907325 9.805280712247
495 4.982608795166 -0.002191867662 0.007591543545 0.004530483822 0.391414808482 -0.741005652845 9.806837825775
496 4.991762638092 -0.000688177991 0.012471199515 -0.003185556523 0.474741139859 -0.729070827886 9.829982274771
497 5.001994132996 0.007078079845 0.009804693869 -0.003459602301 0.331027323380 -0.672052654624 9.833663681746
498 5.012037515640 0.007773489983 0.008255362975 -0.008128654763 0.009199514607 -0.653745387867 9.834800380468
499 5.023521900177 0.005026918375 -0.002325882141 -0.004004780764 -0.246573356465 -0.504568408169 9.822818266153
500 5.032235622406 0.008878700275 -0.004472095055 0.004889851924 -0.203531910684 -0.578696338423 9.828037490845
501 5.041928529739 0.018882209522 0.003190593122 0.018077916148 -0.004521558788 -0.708565154225 9.837198908329
502 5.051896810532 0.019453580331 -0.006769144836 0.002491344808 0.196042778604 -0.615875968784 9.803265177011
503 5.061766624451 0.022525056031 0.001267288221 -0.003302776962 0.377636210248 -0.422761548869 9.789120762348
504 5.071959018707 0.017699451828 0.003834161864 -0.001991538001 0.427921753228 -0.277632943746 9.813137615919
505 5.082546234131 0.011306921663 0.007338835565 0.000531057696 0.402644349597 -0.094483412700 9.833731509447
506 5.091692924500 0.003265146548 0.008391150380 0.001033042267 0.301700083371 0.025707432081 9.838316895962
507 5.103866338730 -0.002288842616 0.011579889433 -0.009299270627 0.185981620811 -0.085058020838 9.810813932419
508 5.111831903458 -0.007130331898 0.014099920178 -0.001810401955 0.023077457263 -0.267580063418 9.803794934750
509 5.122809648514 -0.006397204222 0.015678624387 0.000455889421 -0.064475278133 -0.357709082030 9.819847880602
510 5.131611824036 -0.006455549816 0.010511637263 0.006896799718 -0.145378884226 -0.307220092490 9.827790738344
511 5.144014358521 -0.015321809695 0.007149138393 0.001693713887 -0.212435721774 -0.205146290381 9.840011419058
512 5.152267456055 -0.013604361035 -0.001994237962 0.009643028548 -0.171712569091 -0.384360179342 9.860355051756
513 5.162343502045 -0.001525005493 -0.000528665824 0.008339746170 -0.270510084908 -0.679545203671 10.055360863209
514 5.172563076019 0.006218734458 -0.017037095577 -0.002385956449 -0.382741706595 -0.848972224072 10.185014684200
515 5.182323217392 0.027425813392 -0.027659532825 -0.001284078230 -0.504148468450 -1.067786582038 10.002911338806
516 5.191910982132 0.032632276678 -0.027250388058 0.001711416626 -0.487238905504 -1.023329982162 9.858962244987
517 5.203277349472 0.042498757965 -0.043868263588 0.008698974872 -0.444167474471 -0.808339995593 10.007204364538
518 5.212389469147 0.040940159582 -0.047402461447 0.012555219127 -0.352293244712 -0.453440829590 10.113433070183
519 5.221702814102 0.029612112602 -0.048171836203 0.009125449432 -0.267573795933 -0.153024648596 10.160825922489
520 5.232810735703 0.026322045472 -0.056951887165 0.019070805020 -0.047221446661 -0.003966558951 10.078961395025
521 5.241766214371 0.011229032523 -0.053449052189 0.011759773481 0.270281093325 0.069796015969 9.987438436747
522 5.252122163773 -0.000421017778 -0.050107375910 0.010052881757 0.618604645059 0.097160587795 10.064241614342
523 5.261827230453 -0.014899530134 -0.021841861585 0.000154325861 0.920870757177 0.107888309900 10.240276719332
524 5.272097110748 -0.023684979199 -0.001689898857 0.015326373480 1.164176616445 0.066696059774 10.245418760777
525 5.282701730728 -0.033877547917 0.023946133353 0.040919557534 1.251034592986 0.042050776700 10.164827756882
526 5.291955471039 -0.050616214448 0.036293746589 0.050534363856 1.145097736493 0.097124353331 10.026279151440
527 5.301781415939 -0.066356328728 0.048264676495 0.070694035577 1.033439087123 0.115355542330 9.904466446638
528 5.314580202103 -0.074329716519 0.068542817273 0.113591327277 0.967069681138 0.032614496683 10.037032181025
529 5.322888612747 -0.075619859942 0.077648289875 0.127272535074 0.939845702872 -0.099137403499 10.355500781536
530 5.333063602448 -0.073974941850 0.088348521595 0.131191642934 1.004457655102 -0.075436007213 10.382823650837
531 5.341592311859 -0.075402787346 0.106537087925 0.140299221098 1.150857243910 0.101048721252 10.083351484537
532 5.352061510086 -0.091889934956 0.127317401016 0.170928053703 1.353563034385 0.200264431760 9.936922001839
533 5.362866163254 -0.101018843377 0.150705756085 0.173355108918 1.102220542654 0.138003434809 10.008625237942
534 5.372102499008 -0.108341937163 0.157246230050 0.181587206163 0.646137210131 -0.222093111053 10.224813172817
535 5.382321119308 -0.110487845790 0.153497115092 0.208812352447 0.225878927372 -0.576599490345 10.406901315451
536 5.392201900482 -0.102423086607 0.155368817995 0.234153745024 -0.045999319204 -0.688783365861 10.430220011473
537 5.402835369110 -0.097133382892 0.144090730253 0.243665108344 -0.088116617119 -0.544751314670 10.225962735415
538 5.414969921112 -0.100739760739 0.143052646705 0.263657858121 0.080748750810 -0.292900462355 9.944460232258
539 5.421524524689 -0.104982917047 0.144902461753 0.294796552916 0.180033942685 -0.244885356668 9.848057187796
540 5.432046413422 -0.109058635424 0.142124551710 0.301625197557 0.035754924291 -0.417129583843 9.856619850397
541 5.444691896439 -0.104238064180 0.128167690095 0.308588664728 -0.279251306858 -0.796247588173 10.019849553108
542 5.452204465866 -0.088013029877 0.110517614938 0.319399733883 -0.659843375981 -1.236229881495 10.352848484516
543 5.462644577026 -0.068629357525 0.093520413722 0.328271489133 -0.885231977776 -1.388333648443 10.366432735920
544 5.471695423126 -0.053156387430 0.075300130808 0.331904540203 -0.877662537843 -1.279960476458 10.136312055588
545 5.482954740524 -0.040574794686 0.062597901028 0.341035487606 -0.655127450377 -1.065966709256 9.899578174353
546 5.492357969284 -0.037627624111 0.054969113799 0.349549813348 -0.471830322817 -0.890178429857 9.823612318039
547 5.501750469208 -0.024487637226 0.050756063695 0.340268264185 -0.547990854867 -0.896153114811 9.903035048246
548 5.514123916626 -0.011458996483 0.030622108123 0.323901241785 -0.823335253224 -1.053448770717 9.988649979830
549 5.522377490997 0.013024452506 -0.005085991657 0.318750555078 -1.059927631840 -1.180135568306 9.964718495607
550 5.533021211624 0.023600199130 -0.025289752218 0.315741116467 -1.079208021462 -1.135387996361 9.856167275906
551 5.542413234711 0.035797399941 -0.041884316767 0.310590096866 -0.829888447076 -1.017561338469 9.818100732565
552 5.551728963852 0.032788057037 -0.037959166860 0.288778641091 -0.574968519174 -0.924761859924 10.013278452158
553 5.562539339066 0.043355426147 -0.039699600889 0.261299628976 -0.498222242296 -0.925026738793 10.251080034971
554 5.572571277618 0.043529392984 -0.032092075257 0.234136001713 -0.585239153467 -1.026529066935 10.302924957275
555 5.583211898804 0.056911694238 -0.052232786519 0.223877754865 -0.765861508772 -1.098292383179 10.193964432478
556 5.592319011688 0.066685557857 -0.063864708502 0.205716610772 -0.803009454533 -1.109990103543 10.226158032417
557 5.602200984955 0.076411692635 -0.078378711739 0.179898445782 -0.752347643226 -1.095409925133 10.395148411989
558 5.613886833191 0.087048016811 -0.088751283098 0.138586675359 -0.675915106013 -0.992488185391 10.375432770252
559 5.622659444809 0.088139022364 -0.088610768061 0.128830434377 -0.435118908249 -0.844281880036 10.257301472425
560 5.631979465485 0.097170309285 -0.090159629262 0.113278322625 -0.264959505815 -0.716791601926 10.168330239058
561 5.641860008240 0.087132680367 -0.082254110467 0.077057317785 -0.241272161119 -0.669558597878 10.069349741936
562 5.652329206467 0.099754765643 -0.092676399716 0.055318999071 -0.293697529212 -0.793404160291 10.154153079987
563 5.661978721619 0.100634074856 -0.095135279705 0.029153961509 -0.329098728932 -1.013791784719 10.380298823118
564 5.672112941742 0.105667965303 -0.104812333257 -0.006521740292 -0.488035296276 -0.958063068688 10.277510619164
565 5.682405233383 0.109860080465 -0.112692135902 -0.025215533248 -0.402441816665 -0.830924500600 10.138006578684
566 5.692171573639 0.117611410555 -0.107343210142 -0.025375876351 -0.216475818884 -0.609416586198 10.061406884193
567 5.702560186386 0.109579000457 -0.104269464514 -0.050967090083 -0.085117059443 -0.393343622200 10.031946272850
568 5.713041543961 0.109882783913 -0.108743908040 -0.077913174535 -0.116555308755 -0.333008140773 10.079527405500
569 5.721851587296 0.112892447228 -0.113025971467 -0.085995044528 -0.187920941245 -0.423398493379 10.100251107216
570 5.732268333435 0.114111093098 -0.120534188239 -0.079444741833 -0.310832904316 -0.583096368201 10.210191625357
571 5.742183923721 0.108111881657 -0.129828528897 -0.086656382328 -0.345739721954 -0.641567464918 10.252013250589
572 5.752831697464 0.109476468755 -0.139679353710 -0.092648394912 -0.211152897477 -0.581615780108 10.172591689825
573 5.761913061142 0.105158685679 -0.132534891454 -0.084687557269 0.013109683616 -0.450046009272 10.168677563667
574 5.772032022476 0.106110923894 -0.132096127342 -0.078267233480 0.124850972872 -0.281929751895 10.157716373205
575 5.783023834229 0.101496772601 -0.130966714013 -0.079846770967 0.147336934023 -0.205883989725 10.129531624317
576 5.792322635651 0.100685299095 -0.118390152147 -0.069366591254 0.163999653105 -0.452326569557 10.382931239605
577 5.802254915237 0.106130514773 -0.118097945119 -0.082214029893 0.008333156532 -0.542997625060 10.465302135944
578 5.812379360199 0.118995164090 -0.122371952484 -0.082307065761 0.089258788470 -0.582455294095 10.418218016624
579 5.822401762009 0.122372892912 -0.121202699929 -0.065513009641 0.257593731713 -0.442053888738 10.255076022148
580 5.833306789398 0.120349298280 -0.107777155597 -0.054002644317 0.405798849352 -0.287021141835 10.094935988188
581 5.841805934906 0.107556670826 -0.106460480432 -0.048844126253 0.470024300627 -0.287810351495 10.095655195713
582 5.851861953735 0.104692457718 -0.086799485625 -0.016446430374 0.432498295829 -0.471767574884 10.252973363400
583 5.862650156021 0.105344790705 -0.085738498891 0.009175540787 0.442783182710 -0.634199169204 10.372150143385
584 5.872269868851 0.110320041675 -0.076937458891 0.027264099176 0.527725026682 -0.612126405202 10.283996350765
585 5.882825136185 0.106661307745 -0.071865967938 0.046174045105 0.664363346770 -0.560612179488 10.154096946716
586 5.891775846481 0.111487113766 -0.065910573818 0.073491370052 0.766728358492 -0.603988725543 10.046371353865
587 5.901874780655 0.117397616976 -0.056521674297 0.094320185964 0.793954164013 -0.682625224516 9.970252300501
588 5.912978649139 0.118307635765 -0.048499330115 0.116535277092 0.758090559170 -0.770064706653 9.923862830400
589 5.921813488007 0.127537769274 -0.039453325068 0.151853611804 0.724798632860 -0.918737327456 9.947050548792
590 5.931699752808 0.130764863047 -0.031368723254 0.167806579234 0.766256049648 -0.987795575559 10.042960088253
591 5.942765235901 0.139544539502 -0.022632691432 0.176398752504 0.844598506764 -0.928707853407 10.070696940422
592 5.951096773148 0.148437441916 0.000735007104 0.187107123510 0.944774467126 -0.810124054179 10.106752041578
593 5.961748600006 0.159474613448 0.017557195334 0.181471658262 1.018159143180 -0.656852817535 10.126089953184
594 5.972035646439 0.160992065992 0.044806482757 0.169067286405 1.049300025031 -0.438478681818 10.156459221840
595 5.982119560242 0.171925790361 0.055766751351 0.179214229764 1.108410039693 -0.308492483161 10.162803450823
596 5.992116451263 0.169571339575 0.082006053657 0.170162028705 1.041411692575 -0.228025513329 10.119797179699
597 6.001244306564 0.165256785583 0.086982012028 0.167790333952 0.952797504812 -0.478088086098 10.167971220016
598 6.013613224030 0.175780449723 0.100467610643 0.170243837685 0.806682748497 -0.695871653035 10.253523001671
599 6.021973848343 0.178231789637 0.114340873966 0.164316839521 0.620830533877 -0.786234231368 10.290369815826
600 6.031628608704 0.188745799818 0.130301006964 0.157526228150 0.574363990165 -0.688933858573 10.362243790627
601 6.041122436523 0.190267513420 0.148399558449 0.149089883093 0.557087331712 -0.344144930430 10.146038314104
602 6.051040410995 0.188008703408 0.153271095939 0.145423342773 0.661572178379 -0.028101177101 10.064105958939
603 6.061465501785 0.187540203438 0.172130487580 0.139319718772 0.713154195249 0.017263702074 10.179346393347
604 6.072071075439 0.196716557737 0.181134635226 0.125271868595 0.652461193129 -0.177741834149 10.325904514790
605 6.082200527191 0.204765013381 0.188610777551 0.096698921450 0.550614171624 -0.274085456282 10.460312122107
606 6.091880083084 0.204743974408 0.188108688462 0.084246745852 0.497876781486 -0.141862067236 10.336753438711
607 6.100996255875 0.209749086071 0.201655606360 0.075576417126 0.467593759261 0.185431653634 10.066883386374
608 6.113501310349 0.202181597321 0.208693758555 0.063405180056 0.485531262718 0.393313911036 9.960007978678
609 6.121178865433 0.194909586293 0.212651898370 0.055754837867 0.359945715107 0.453333971724 9.966066863537
610 6.131568670273 0.186884732914 0.214214424916 0.052517445150 0.238839500137 0.318790928274 9.970870935917
611 6.141328811646 0.189718968815 0.216486484155 0.057976305368 0.193650280684 0.130814109575 10.121098769903
612 6.151696443558 0.188035052058 0.220336915749 0.043022888873 0.047801572680 -0.007075247998 10.168630785942
613 6.161487340927 0.180042372994 0.218007215716 0.028183104053 -0.056582724717 0.067734511569 10.019527956247
614 6.171767234802 0.171112610767 0.217629263224 0.035215536693 -0.051247789110 0.273747267947 9.793360578418
615 6.181966066360 0.164703497222 0.210063638686 0.045512299508 -0.079715182353 0.470223727226 9.728375208378
616 6.191178560257 0.157152170530 0.200742441712 0.034895634870 -0.128558600955 0.528205046542 9.798803751469
617 6.201519966125 0.153936769698 0.199237922144 0.042715451893 -0.028855897326 0.461830304973 9.907601723671
618 6.213094949722 0.156853896488 0.192038232584 0.037694099108 0.087115263166 0.355548353121 10.108369381428
619 6.220886230469 0.149797484995 0.201990382354 0.018013245026 0.095822717445 0.259480207935 10.185532747507
620 6.232026338577 0.154987902736 0.201659617747 -0.004065479251 0.031279319250 0.295501614511 10.190642044544
621 6.241207599640 0.155507851649 0.213385066618 -0.019574481603 -0.028800698239 0.512834324576 10.118930622339
622 6.251528263092 0.148263104733 0.212861372634 -0.041876639373 -0.064506039969 0.826611813605 10.075041421652
623 6.260937929153 0.140383260476 0.224115375414 -0.058536992323 -0.148049536021 0.896869033277 10.052294583321
624 6.271608591080 0.134779104015 0.221614151163 -0.070357079121 -0.262900682911 0.676016482115 10.058620101213
625 6.283087730408 0.139483503179 0.216851636830 -0.075993584666 -0.396629793942 0.325092070587 10.115518187284
626 6.291836500168 0.137589263275 0.228612588967 -0.085225640644 -0.380960206166 0.208400996793 10.068400154114
627 6.301640033722 0.143934818816 0.224049362308 -0.103360419443 -0.322249812149 0.361931758448 9.976588343382
628 6.314217567444 0.128547406932 0.227930020780 -0.114788068647 -0.230564191639 0.738065380454 9.888909344673
629 6.321671724319 0.121525200415 0.238261487913 -0.109185560017 -0.231645670719 0.989321845025 9.807017920017
630 6.332271575928 0.111652221431 0.245148305979 -0.121839653161 -0.355220762864 1.004432950616 9.774186973572
631 6.341734170914 0.113728763034 0.238780837615 -0.134079474952 -0.536132445708 0.831180535555 9.740683597326
632 6.350716590881 0.107735036040 0.234084502835 -0.123591597039 -0.575325784050 0.648565339521 9.688891299963
633 6.361825227737 0.111173909377 0.230431994045 -0.102102000926 -0.492909133248 0.533634515181 9.728375208378
634 6.371686458588 0.112875669313 0.243339137426 -0.128818882916 -0.467270992957 0.625367680863 9.692769173384
635 6.382993459702 0.098765809094 0.236982404931 -0.148132060562 -0.566189984679 0.830001371428 9.559432191253
636 6.390755176544 0.081921648095 0.239433162279 -0.119402136716 -0.722769795209 1.062751910090 9.510676352978
637 6.401193857193 0.072964921361 0.237206410068 -0.091531198835 -0.903511031717 1.182876669914 9.510214422941
638 6.414816617966 0.062688198834 0.218860376016 -0.075154214547 -0.997991438583 1.152701748088 9.526915825009
639 6.421515464783 0.060949624856 0.202962552665 -0.064386546595 -0.900807717741 0.990038421303 9.573942641616
640 6.431183815002 0.057262594840 0.201339572363 -0.054186785262 -0.594480823986 0.878688797280 9.528042583466
641 6.441408634186 0.053747209718 0.212717079238 -0.049968775020 -0.325214094669 0.816549778730 9.568632785082
642 6.451097488403 0.049752884202 0.212947692343 -0.075069059971 -0.415991606042 0.844545224011 9.634546108246
643 6.462241649628 0.051185631579 0.214281536575 -0.071323648471 -0.665165804029 0.881283353046 9.781892434359
644 6.471322298050 0.046514742471 0.215512799171 -0.060440461745 -0.877562331185 0.818669759855 9.816070579290
645 6.481806755066 0.045243386817 0.210839434156 -0.068966680166 -0.996269141212 0.673903736919 9.783661217093
646 6.491619110107 0.055045421687 0.216511351422 -0.079148639932 -0.806999667585 0.453443168476 9.837850288153
647 6.501682996750 0.069936807333 0.230382209578 -0.105349850711 -0.697339523435 0.293962572534 9.928794372082
648 6.515414953232 0.082200314613 0.230513170524 -0.146107292475 -0.775337506458 0.351028016880 9.920665572882
649 6.521240949631 0.092212543633 0.219378061243 -0.145473643228 -0.902976669297 0.584271256551 9.774713222981
650 6.531389474869 0.085186625335 0.205713015505 -0.120422302184 -1.055234583467 0.606604916006 9.654717832804
651 6.542589664459 0.081728044606 0.191612892469 -0.114239632233 -1.119190697372 0.506218711697 9.672560611367
652 6.551427125931 0.083161166490 0.181994270336 -0.108275507939 -1.093959377110 0.272956048306 9.764201683402
653 6.561480760574 0.101899450881 0.170266857384 -0.110352299213 -1.026855049208 0.186466610804 9.800769585371
654 6.572852134705 0.112087040735 0.162315490606 -0.112367171993 -0.933550517410 0.421966656446 9.771460416913
655 6.582516193390 0.111969861648 0.169446137715 -0.124162096079 -0.935782399625 0.786372664198 9.703650841713
656 6.591999769211 0.103555229676 0.179475336064 -0.130652469327 -0.963348293826 1.058363794014 9.631513742208
657 6.600673198700 0.100235258160 0.172867866952 -0.132076794457 -1.067279189900 1.154500790164 9.718095803261
658 6.614233970642 0.095890210973 0.165814767765 -0.131088819949 -1.198314854130 1.073857161328 9.756712569594
659 6.621955156326 0.089676149011 0.160831144483 -0.112952443254 -1.109835152328 0.859494946450 9.672242522836
660 6.631385803223 0.097205687716 0.144818655403 -0.099474834123 -0.899533974901 0.708795899972 9.660004300475
661 6.642478704453 0.095113050633 0.150874850169 -0.109406194591 -0.706440202966 0.733562439680 9.688970822096
662 6.651327848434 0.108678760462 0.162097128042 -0.132136282817 -0.624307069033 0.764367252812 9.490599938035
663 6.661731958389 0.114421218207 0.161293369380 -0.153969010592 -0.726917663813 0.884848473519 9.571109080911
664 6.672725677490 0.125056327316 0.168945829614 -0.178289397141 -0.912814901993 1.013974948749 9.719104447961
665 6.682493209839 0.123900956489 0.164446968230 -0.192398691438 -0.977024346516 0.906086364761 9.913012737036
666 6.691396474838 0.133271696581 0.169208317429 -0.195676493463 -0.978311464861 0.732801132202 10.026088532209
667 6.701465845108 0.129630514548 0.176669729145 -0.218123312895 -0.878338987604 0.502903742418 9.996799829006
668 6.714516401291 0.144506016935 0.177618014230 -0.228541432632 -0.881305353194 0.357542180568 9.836961511374
669 6.721034526825 0.146274355899 0.178512303724 -0.239693436342 -0.946198629588 0.492784806825 9.743444067836
670 6.731065750122 0.142316798651 0.167435151486 -0.232961298001 -1.159072289541 0.893536193445 9.860004218817
671 6.741586208344 0.121316882961 0.145555685234 -0.212632657031 -1.389997181296 1.155488092527 9.863161715269
672 6.751602888107 0.115882969073 0.135238158085 -0.188673445060 -1.406670224369 1.151825104281 9.802482234836
673 6.760788917542 0.117818904093 0.123985004189 -0.199745121173 -1.188379192203 0.907350240424 9.778564783931
674 6.771492719650 0.129893634864 0.127402863520 -0.243009155122 -0.983073583469 0.751226585805 9.844692699909
675 6.783611536026 0.140085685513 0.136534085561 -0.285483378716 -0.944118555710 0.674138648808 9.926103483438
676 6.791911363602 0.151034639834 0.135473090505 -0.304765230930 -1.258730405867 0.636907380223 9.960865180492
677 6.801761627197 0.147413190160 0.137190513158 -0.330019055441 -1.790353698134 0.804154193178 9.925607639551
678 6.813107728958 0.132513852481 0.104067705094 -0.329674442396 -2.046105502099 1.019257981181 9.994618817568
679 6.821753740311 0.121240000829 0.091712385335 -0.286953576796 -1.799806599319 1.012763332576 10.183825360537
680 6.831738233566 0.116104710523 0.090417922598 -0.301304253356 -1.477564644367 0.999208828881 10.365050454140
681 6.841651916504 0.114899696709 0.080362442178 -0.365353543889 -1.309929210842 0.971845102161 10.505293582678
682 6.851498842239 0.120411333289 0.088440675291 -0.392874484146 -1.350559319705 0.897765849978 10.585771150589
683 6.862018108368 0.131749208998 0.080459064991 -0.415130987429 -1.694744997919 1.022496753931 10.537055658102
684 6.871454954147 0.135575256023 0.072647039796 -0.448514876826 -2.031088975221 1.181490879804 10.467607108355
685 6.882797956467 0.138196672063 0.063249276941 -0.480163816642 -2.229696963876 1.136030897722 10.511194592714
686 6.891554832458 0.141863944752 0.050582163437 -0.478316182056 -2.319839833081 0.896179208010 10.552265435457
687 6.901033401489 0.146154214045 0.045656447264 -0.496744724167 -2.331554291099 0.700487445071 10.538175984621
688 6.913892745972 0.148178083315 0.035989763395 -0.515762657117 -2.267679745853 0.646114332899 10.525945948362
689 6.921545267105 0.147789228506 0.025302416798 -0.508007598602 -2.237569070309 0.869792477936 10.478433812857
690 6.931347370148 0.140082939128 0.010720508155 -0.495718142146 -2.286997630745 1.205949563608 10.466354634762
691 6.940943717957 0.128070351557 -0.003345822384 -0.482622313802 -2.366859194487 1.401634309888 10.332614779472
692 6.952183008194 0.117272240345 -0.025717202057 -0.476547077434 -2.472083202302 1.392603139132 10.237903919220
693 6.961379528046 0.115790415903 -0.042171247408 -0.464732262863 -2.431058406383 1.197704112455 10.303069968224
694 6.971527576447 0.113906678840 -0.052072784633 -0.453391324519 -2.242052569091 0.959684063047 10.263175585270
695 6.982420444489 0.111363484834 -0.056916887402 -0.434271292631 -1.952612763047 0.885254708827 10.081751686335
696 6.992340803146 0.111315223362 -0.066154407022 -0.430927860330 -1.843524476588 0.930745534971 9.946590957642
697 7.001303672791 0.111739747885 -0.082662398030 -0.416076143300 -1.842613188028 1.127686409354 9.897922242880
698 7.013766527176 0.098923776159 -0.092986075416 -0.383741872267 -1.820456479937 1.257268748134 9.944963092804
699 7.021120071411 0.090407602849 -0.096339136709 -0.350370366569 -1.794431400150 1.135896557942 9.944565482140
700 7.031491279602 0.083569154446 -0.096308335587 -0.332990777033 -1.594204756021 0.915045614764 9.841944508553
701 7.042154788971 0.086192060192 -0.087997258970 -0.326555481285 -1.392309901267 0.581878466271 9.927453020811
702 7.051455974579 0.095456623380 -0.086375060971 -0.311752633261 -1.057972469106 0.380037076995 9.944158515930
703 7.061130046844 0.105839348042 -0.066695220138 -0.315543609783 -0.918073668480 0.546080642603 9.773706332445
704 7.071683406830 0.105986254666 -0.057849206005 -0.329008119491 -1.151121903509 1.007242903188 9.581469177604
705 7.083780527115 0.095052180757 -0.065721934628 -0.300861103351 -1.287439649999 1.455874690264 9.513652585745
706 7.091917037964 0.085650165167 -0.061306342801 -0.249608984291 -1.320285945386 1.691964939237 9.572180290818
707 7.100729227066 0.069743832184 -0.063901905372 -0.251827547282 -1.399106120020 1.672130014300 9.676974674463
708 7.110370635986 0.057455873756 -0.075769388114 -0.251955428949 -1.325137964934 1.497055606842 9.793746494651
709 7.121955394745 0.059433674501 -0.061846972824 -0.210937987761 -1.143536749184 1.307819096893 9.792829651237
710 7.130880355835 0.055907399547 -0.057082640052 -0.206458051465 -1.226776834130 1.386381701678 9.726516963243
711 7.141324758530 0.041126343670 -0.054065328471 -0.218009545982 -1.353749122024 1.615846470594 9.733540638685
712 7.151077747345 0.031792571583 -0.059182958690 -0.199068445230 -1.567930000126 1.784854245633 9.716093716621
713 7.160951852798 0.013921628825 -0.068247073234 -0.174260899939 -1.893509691954 1.887466740757 9.693776648641
714 7.171200990677 0.000319547342 -0.087597044115 -0.146329616492 -2.023346530795 1.832063203007 9.727854221463
715 7.182419538498 -0.010968712688 -0.096311215130 -0.129130297994 -1.962622026801 1.743948440552 9.733223134875
716 7.190598011017 -0.025760095595 -0.109649773962 -0.122139733159 -1.823909699321 1.756323633939 9.720589640737
717 7.200608730316 -0.042832668431 -0.108672393842 -0.113807001714 -1.623910658062 1.867003532499 9.794269820452
718 7.210572957993 -0.055099438084 -0.116551305993 -0.091978135523 -1.583250143677 1.981136942804 9.925405325890
719 7.221008539200 -0.073253782793 -0.111456645538 -0.084869084986 -1.556582747251 2.169157085717 9.952882561684
720 7.231166839600 -0.101437866807 -0.104675022336 -0.087825651527 -1.479643768072 2.219866478741 10.057529010773
721 7.240461111069 -0.121520040540 -0.088533944186 -0.089674243186 -1.475457746387 2.172679302245 10.123249375820
722 7.252318859100 -0.136417896836 -0.089722488014 -0.083216194056 -1.449933919162 2.030295215696 10.159410896301
723 7.261072874069 -0.148045091708 -0.073221874795 -0.071178189941 -1.292558156401 1.911870680004 10.183299111128
724 7.271128416061 -0.159185560601 -0.064168371284 -0.075237563167 -1.127446965873 1.846547925621 10.111825085878
725 7.281924486160 -0.173030070107 -0.061154488523 -0.088976894455 -1.111572871730 1.853267692029 10.127654668093
726 7.291008472443 -0.182231974108 -0.045975198518 -0.107650980018 -1.387086729705 1.763800468594 10.165371547937
727 7.300871372223 -0.194217164409 -0.047454068516 -0.109610658784 -1.739789316058 1.610231535584 10.209822081327
728 7.311449527740 -0.194713660860 -0.049354762425 -0.114219908196 -1.923805578053 1.385425243378 10.169678606987
729 7.321071147919 -0.195795753145 -0.055522730894 -0.128548896638 -1.884269190878 1.207446889356 10.111942030191
730 7.331211328506 -0.189820268805 -0.059244606708 -0.136833458157 -1.669759406894 1.137861441672 10.082992465496
731 7.340632677078 -0.187880189240 -0.053707503650 -0.153606138249 -1.496119759977 1.240472913533 10.034986824989
732 7.350518465042 -0.190849314250 -0.051673693299 -0.164217686704 -1.379313148856 1.442370838076 10.031056326628
733 7.361406326294 -0.193912049372 -0.058233379475 -0.179108768584 -1.486504744738 1.614365809411 10.058173373938
734 7.371582031250 -0.195291916357 -0.067199660299 -0.184016491775 -1.680511413217 1.654506213963 10.118434778452
735 7.382441759109 -0.201385428668 -0.079527740913 -0.177547556974 -1.705106410235 1.518174434155 10.194811109304
736 7.390595912933 -0.206527693127 -0.088065968526 -0.164531074186 -1.601410279870 1.233942889273 10.271321926117
737 7.399747133255 -0.214150159510 -0.085839773914 -0.158848654078 -1.352110586017 0.925714736804 10.328188437223
738 7.413420677185 -0.214351810739 -0.073846710643 -0.139608030927 -1.006149766222 0.600210766420 10.385784680843
739 7.421464443207 -0.213387596621 -0.057320535239 -0.132196495225 -0.860557093173 0.551002755649 10.359214932919
740 7.431447982788 -0.218851670809 -0.050590028084 -0.132358956374 -0.842612353787 0.743029301092 10.322789118290
741 7.439908981323 -0.220798141960 -0.051222520521 -0.111292927710 -0.918093841374 0.910493484288 10.287606421709
742 7.451097249985 -0.218606826436 -0.042743048900 -0.074768913394 -0.922220148370 0.896678925678 10.275660560131
743 7.461441516876 -0.216925572840 -0.046637813803 -0.064789557769 -0.837768885791 0.703379404843 10.365629328489
744 7.471398830414 -0.215436699343 -0.036247569873 -0.049008243555 -0.607718920223 0.285300397631 10.522892532349
745 7.482722520828 -0.201533367266 -0.014921132948 -0.016103083371 -0.372801878527 -0.057017319021 10.603050842285
746 7.490326881409 -0.192804823504 0.001297151906 0.004249648283 -0.313140800335 -0.161114088725 10.553170584440
747 7.500483989716 -0.188663940904 0.021021198092 0.016640793280 -0.400871108361 0.004563171663 10.444705903530
748 7.513480186462 -0.183715554572 0.028846466272 0.037473913943 -0.619242357016 0.198069039825 10.383432930708
749 7.521032333374 -0.178402831158 0.035528770211 0.075967577234 -0.832668286487 0.160485586133 10.313904858828
750 7.530799388885 -0.166926903837 0.029487239475 0.089541750922 -1.001384650916 -0.025103816700 10.284575225115
751 7.540744066238 -0.145990113387 0.030122519908 0.111141019337 -0.933795661926 -0.299049156792 10.146948140860
752 7.550502777100 -0.124312880931 0.040635456502 0.120711496511 -0.707663001940 -0.420685787313 9.967542700768
753 7.560805320740 -0.109163405846 0.051813837990 0.116140222112 -0.617472112477 -0.406958717667 9.953771338463
754 7.570645093918 -0.088777556847 0.061060795187 0.117980766031 -0.693969407603 -0.299992440585 10.053348251581
755 7.582242012024 -0.076130937199 0.063271572593 0.132859372665 -0.914389045537 -0.150985824997 10.070300499201
756 7.590268373489 -0.068360848469 0.060469386171 0.148713378694 -1.089627101943 -0.004375279040 10.052106302977
757 7.600453138351 -0.061826029559 0.060586773319 0.168606775918 -1.093142667264 -0.047774584126 9.990329300165
758 7.610707521439 -0.044987652612 0.061387889625 0.181976560315 -0.935269014090 -0.304941304643 9.843601609468
759 7.620828628540 -0.032625102788 0.076225962116 0.182127311877 -0.783658167422 -0.511169805005 9.661525161266
760 7.631230354309 -0.007631720347 0.078246585659 0.173666216067 -0.694093076214 -0.615938022360 9.446389725208
761 7.640456438065 0.011932412898 0.077329118341 0.170769612263 -0.716244156361 -0.417408130579 9.347370636463
762 7.649921655655 0.019917249160 0.078752727747 0.175823942472 -0.825128886625 0.041207667589 9.419697185755
763 7.661610126495 0.015908432303 0.070144234293 0.194575126549 -0.997466724068 0.308776767477 9.522427502275
764 7.671904802322 0.019214713507 0.060153477010 0.224849742084 -0.949406339005 0.286244394053 9.570505063534
765 7.684272766113 0.011138728476 0.062222349541 0.247341985058 -0.750117368996 0.147205234626 9.514716194272
766 7.689952611923 0.016511235695 0.066671210076 0.252042597540 -0.575031522922 -0.010815758103 9.415182550550
767 7.700800418854 0.017176377862 0.077872411526 0.253155565849 -0.484729280546 -0.119225412374 9.343109185696
768 7.712156772614 0.030434421845 0.077020241589 0.230056355173 -0.833372510523 -0.006112911647 9.266862663031
769 7.721453428268 0.035026714411 0.067889801851 0.204669056358 -1.350700091422 0.229911112469 9.280168586969
770 7.730573415756 0.034878580237 0.050524489354 0.219146499386 -1.616324772835 0.327134649195 9.255505616069
771 7.740077733994 0.043573780390 0.034902935677 0.218150227467 -1.724349304587 0.328899375424 9.289417127967
772 7.751045942307 0.037966731902 0.026136610397 0.196835268143 -1.555823924839 0.197597206067 9.304833312035
773 7.760633230209 0.046887884629 0.024538973818 0.184251748768 -1.264459215403 0.014796869141 9.259326771498
774 7.771712541580 0.056884151327 0.017222370446 0.164079834829 -1.289431942552 0.013968215900 9.133870666623
775 7.782623767853 0.054246281945 0.013484398112 0.139288318438 -1.544554732293 0.188039712813 9.098417828679
776 7.790518760681 0.056327692140 -0.003018901935 0.125597789578 -1.878633059710 0.421043527275 9.116253005862
777 7.801146268845 0.057399177554 -0.030440890414 0.122506874882 -2.094806084186 0.608989995271 9.122676756978
778 7.810968399048 0.054791959491 -0.046508513171 0.121883478805 -2.062436483055 0.662783136740 9.124402855039
779 7.820373296738 0.054575577653 -0.059395699488 0.112420560050 -1.765848602057 0.621261108220 9.134921995997
780 7.831271409988 0.048986626177 -0.059508084886 0.096556109437 -1.407743480802 0.515593040921 9.168418355584
781 7.840992689133 0.049902270894 -0.059950061437 0.072621606607 -1.230446254313 0.430683575906 9.257000164390
782 7.850845336914 0.057507231154 -0.053193580139 0.046763194595 -1.300190965533 0.395746206567 9.293256994486
783 7.859903573990 0.056348443990 -0.052352920051 0.019696044504 -1.583399393857 0.567450863644 9.249782361388
784 7.871165513992 0.058176129834 -0.069795393479 0.005230201830 -1.786059210598 0.759138160944 9.191333593726
785 7.883021593094 0.057057722851 -0.071048019621 0.005010888954 -1.690812306851 0.847400127053 9.277041496038
786 7.891283512115 0.057709635558 -0.064830890862 -0.003031954025 -1.490454246551 0.794107653424 9.330009083748
787 7.900075674057 0.053003380503 -0.066781211113 -0.012753979369 -1.226922722161 0.748927095160 9.371681020260
788 7.910078048706 0.046980483573 -0.054484518349 0.000888549004 -1.087058712468 0.738390997276 9.408595077395
789 7.921740531921 0.043608759346 -0.054100178431 0.008003701534 -1.107673948333 0.863945116103 9.368733438849
790 7.931222915649 0.023430753425 -0.053280361740 0.032186927484 -1.167326219156 1.057570034489 9.412992183566
791 7.939821481705 0.011803897691 -0.057170678332 0.049087892877 -1.234048285335 1.255520284474 9.501130773425
792 7.951416969299 -0.004582023791 -0.068658340207 0.064443084673 -1.234782549441 1.325177726001 9.556370589137
793 7.960930347443 -0.020718242712 -0.063746659725 0.085336577949 -1.054710599855 1.193139629737 9.524948236942
794 7.971880435944 -0.031022123241 -0.056411332043 0.094012807240 -0.869868784100 0.891221426949 9.585347635746
795 7.982063293457 -0.038837510677 -0.056436694491 0.103044893110 -0.730787058771 0.651351391599 9.564162003994
796 7.990854501724 -0.042043453126 -0.051657165056 0.108013660947 -0.792188743427 0.501587022543 9.595849235058
797 8.000706434250 -0.049438027821 -0.053460753453 0.102183135793 -0.989342602640 0.474642395005 9.555842000842
798 8.011624574661 -0.054980631971 -0.059886270406 0.111205234809 -1.197868419215 0.513400883228 9.510575780869
799 8.021136522293 -0.059771775285 -0.061865182188 0.119249371138 -1.206278177127 0.500441881903 9.433158645630
800 8.030400037766 -0.061888538943 -0.053570642138 0.111140045619 -1.057775564119 0.332456017435 9.408258277774
801 8.044768333435 -0.056814996524 -0.056879120449 0.089859332882 -0.906170345396 0.146567741940 9.446852824688
802 8.051018476486 -0.058033309499 -0.047427694899 0.075348192543 -0.742077520564 0.057663842915 9.487313218117
803 8.060605525970 -0.050861999249 -0.036586011874 0.071463922159 -0.688444812074 0.113947907388 9.545393611193
804 8.070399522781 -0.054430402084 -0.031494430699 0.051841235260 -0.771159013063 0.321584435552 9.592084212899
805 8.084076881409 -0.055961969382 -0.039160810111 0.029023058819 -0.947017970681 0.549577606469 9.602330288887
806 8.090891122818 -0.057223242474 -0.036147368437 0.026660277333 -1.040314462557 0.636041992307 9.558496052027
807 8.100266933441 -0.060396777581 -0.033461884647 0.026299781029 -0.961334878206 0.515954508483 9.504343818426
808 8.109900474548 -0.058691996621 -0.028614109628 0.003639126406 -0.807513930202 0.251464058999 9.477624381781
809 8.120854854584 -0.050594734389 -0.023832847058 -0.024640675362 -0.720293353200 -0.061942643467 9.408716114759
810 8.130905628204 -0.039595521225 -0.018850465890 -0.038100913609 -0.736332265735 -0.169936477337 9.387124686241
811 8.141062498093 -0.042382486016 -0.006059924752 -0.051577698825 -0.899302205890 -0.018917510505 9.372348772287
812 8.150251626968 -0.043033291846 -0.009915263948 -0.052837944104 -1.105661775246 0.216420654058 9.379879986048
813 8.159909009933 -0.044379811061 -0.021075202005 -0.044519926624 -1.163175719306 0.405569711588 9.362710222006
814 8.172169446945 -0.050171978372 -0.013192476125 -0.048709120630 -1.130028365403 0.516231958866 9.364181966186
815 8.182201147079 -0.052416398993 -0.017813035649 -0.057299716809 -1.050849756449 0.532322326899 9.325095668435
816 8.190155744553 -0.055348967955 -0.013785213600 -0.055356632866 -0.945596220195 0.466463492475 9.274046552181
817 8.200512886047 -0.051187512436 -0.006420687373 -0.061941277855 -0.983858937621 0.359556655996 9.257029985189
818 8.210653066635 -0.045421718742 -0.013068280232 -0.069201271369 -1.052219101265 0.386797700822 9.122108992338
819 8.221494436264 -0.042548954390 -0.012408467507 -0.076026616186 -1.191817062646 0.523530380353 9.123571965694
820 8.231725215912 -0.044505254270 -0.015108025479 -0.064058773883 -1.284019613564 0.615906959027 9.099163933396
821 8.240713119507 -0.043178509027 -0.029605966525 -0.052568702679 -1.298628735691 0.640136870518 9.143805086017
822 8.251425981522 -0.046780775619 -0.030278458393 -0.052815719192 -1.287538467944 0.632253142744 9.175907469392
823 8.261259317398 -0.055116057873 -0.025305801925 -0.045023576159 -1.160322058797 0.648514030203 9.232093364596
824 8.271753787994 -0.056611859750 -0.018111952595 -0.033605012911 -1.151791775152 0.647672250420 9.234998261333
825 8.282302379608 -0.057488726345 -0.026660391766 -0.033259528097 -1.249963529259 0.674284390658 9.153933048248
826 8.291880607605 -0.067990273764 -0.029385371483 -0.013441769849 -1.340995175242 0.722165339291 9.065136646628
827 8.300675392151 -0.071907030553 -0.032928653218 0.009260766103 -1.414050726146 0.738658507392 8.983249899745
828 8.310343742371 -0.075301087881 -0.044226175794 0.033590792047 -1.380915724486 0.672655648738 8.964677973390
829 8.319591999054 -0.084986147561 -0.052322197992 0.049622767976 -1.288233848065 0.577870711572 9.035464950800
830 8.330246210098 -0.087971950617 -0.054023158980 0.057308297181 -1.202227810845 0.470865093693 9.071566829681
831 8.339825391769 -0.084025953152 -0.056858547530 0.086677188274 -1.078776935488 0.476738694906 9.131503713727
832 8.349842548370 -0.087090810481 -0.053572614541 0.094438987916 -0.945851962790 0.583342133984 9.140397913456
833 8.359105348587 -0.095954093550 -0.056631017865 0.097334027113 -0.891315932572 0.740061692968 9.203919725418
834 8.369199752808 -0.104158161025 -0.055476329473 0.103417219675 -0.821233690828 0.895470379293 9.366272930503
835 8.384566545486 -0.109567948338 -0.048890461094 0.112804429754 -0.739436040893 0.898673484027 9.418150012493
836 8.391071081161 -0.121273931166 -0.031432252129 0.113516068009 -0.729026169777 0.808643685356 9.306783358455
837 8.399656295776 -0.126700521361 -0.030165889903 0.102273783139 -0.706392694339 0.588524703942 9.230196527839
838 8.410307407379 -0.120347592193 -0.027732507600 0.107381909202 -0.753253961653 0.365562367737 9.111867009401
839 8.419525146484 -0.117226242560 -0.038634968954 0.104542280400 -0.803852769211 0.266514042914 9.034051678777
840 8.429997920990 -0.118147904356 -0.035876425085 0.100286881873 -0.811250154823 0.300468312576 8.938576587439
841 8.440018415451 -0.121737837183 -0.039222216780 0.090693143652 -0.875362901017 0.344499308243 8.887751419544
842 8.449287652969 -0.114993057150 -0.048378976040 0.088767037361 -0.799585325047 0.403797383979 8.927530027628
843 8.460002422333 -0.111458842646 -0.041163136905 0.078929353583 -0.730033425763 0.474391512908 8.941077441573
844 8.469871759415 -0.112477277059 -0.045217695635 0.044801485169 -0.744447543249 0.553417874984 8.888920862675
845 8.479312419891 -0.108482360654 -0.050300833757 0.037746721507 -0.672877550572 0.555110424645 8.887257329822
846 8.489244222641 -0.106149855980 -0.049435510301 0.034599936605 -0.628633350804 0.488407544643 8.925904501677
847 8.499879837036 -0.101810051892 -0.050266549719 0.024658639216 -0.594516674727 0.438132709377 9.028115000725
848 8.510047197342 -0.095114174154 -0.049901492752 0.004246665751 -0.523950502798 0.413566911891 9.130857596397
849 8.519788980484 -0.091975039598 -0.057426062997 -0.003981397221 -0.416814126559 0.400504926480 9.233992540240
850 8.529497385025 -0.088669723790 -0.042840191862 -0.010195902871 -0.308174613900 0.400357393920 9.266131761074
851 8.539847850800 -0.082084034342 -0.037160384981 -0.031502010305 -0.355033980869 0.348832972124 9.302216098309
852 8.550215482712 -0.079556827626 -0.042931529965 -0.035812517541 -0.327763736509 0.237958142012 9.282582902312
853 8.559993028641 -0.073956765775 -0.042896164017 -0.020752522589 -0.298815195076 0.117283250559 9.279043582678
854 8.572820901871 -0.067044327267 -0.041400104147 -0.034541130679 -0.336209747158 0.054038957502 9.280883116722
855 8.580266714096 -0.059820498649 -0.043559278645 -0.048089835808 -0.359334242530 0.048633540105 9.267503517866
856 8.589470624924 -0.052305898613 -0.051434961713 -0.045988963732 -0.340699239336 0.045043911575 9.235988779664
857 8.600669622421 -0.045768295868 -0.052561587045 -0.040657677253 -0.412576174289 0.090826545758 9.307619510293
858 8.609826803207 -0.044034536387 -0.057181509907 -0.045935921053 -0.357727208398 0.071033113212 9.410511794686
859 8.619652032852 -0.033982595058 -0.058533022549 -0.044581370743 -0.285949091390 -0.006500278835 9.652420461774
860 8.630964756012 -0.025224157312 -0.052800148022 -0.071975274056 -0.325572455898 -0.016648680054 9.719255890846
861 8.641194820404 -0.013653195711 -0.060886570356 -0.077941903386 -0.286005590111 0.070770801636 9.658451279998
862 8.651093006134 -0.003144260621 -0.055659147160 -0.071219934991 -0.223103308920 0.181151893772 9.587304114103
863 8.659487962723 -0.003546037482 -0.050107921026 -0.102449926278 -0.304261401370 0.343047846593 9.505548929572
864 8.670394659042 0.004951504623 -0.061179838488 -0.102952989085 -0.288925689608 0.252015378345 9.515673968196
865 8.681830883026 0.010237678089 -0.060076952740 -0.085400593683 -0.214385877829 0.165962417219 9.478910769224
866 8.691217899323 0.017078964423 -0.058422006182 -0.097597238975 -0.242394113895 0.157581566479 9.444221577644
867 8.699320554733 0.022230398063 -0.063372356595 -0.111610493026 -0.265204394516 0.269634373002 9.360174284577
868 8.709784269333 0.023008937837 -0.055718930965 -0.092078137222 -0.251848897152 0.329846880175 9.208025640249
869 8.720803976059 0.021521470822 -0.052170801445 -0.083474878544 -0.368815685436 0.410254720040 9.077988826633
870 8.730277538300 0.016356112803 -0.066565574127 -0.083697385653 -0.486737835668 0.374253888354 9.009762344956
871 8.739490985870 0.020610707180 -0.070664566036 -0.056163853637 -0.372086033151 0.268313030172 8.996085707545
872 8.750248670578 0.024455244449 -0.062643245507 -0.047679917060 -0.312365057543 0.301496728174 9.022942553759
873 8.760906934738 0.024326930019 -0.068288506195 -0.061302339737 -0.332373608239 0.404809902459 8.956300082803
874 8.769851446152 0.025824152942 -0.063178465984 -0.058095323701 -0.332129523531 0.497701840103 8.794716956019
875 8.778874158859 0.019552341996 -0.069631201276 -0.051193891539 -0.509444766752 0.569953252673 8.702677103877
876 8.789768218994 0.015494567707 -0.069309158521 -0.043792034763 -0.649473412111 0.539499601386 8.683587114215
877 8.799450397491 0.010385140232 -0.077110497783 -0.029170121488 -0.712412914485 0.423293718584 8.703538983464
878 8.812206506729 0.008192108217 -0.082820057166 -0.017961101164 -0.703197921887 0.262627289034 8.718191521168
879 8.820432662964 0.004583079693 -0.081813740136 -0.029126618335 -0.786633523107 0.148278692057 8.667927685976
880 8.829162120819 0.010281927135 -0.091230444724 -0.020472618116 -0.773420350626 0.061332979873 8.569166459441
881 8.840796947479 0.007739925310 -0.095613833109 -0.004490229518 -0.733169141337 0.093753853776 8.546295660138
882 8.850227832794 0.001796618406 -0.106720005480 -0.002239360354 -0.706122406796 0.112725738818 8.597194502950
883 8.860377073288 -0.002242318960 -0.113658671963 0.000842194981 -0.678732952327 0.139236292820 8.813729762435
884 8.869013309479 -0.003515650138 -0.125844681255 0.013174725532 -0.598573399857 0.169977462664 9.077689449191
885 8.879858016968 -0.007216014945 -0.124557825172 0.018567973158 -0.508257928155 0.260820609033 9.253895877600
886 8.889906406403 -0.004266957530 -0.131368110646 0.006629211326 -0.344423367530 0.416507367007 9.474785558581
887 8.901026010513 -0.006719323438 -0.126270645549 -0.006047050553 -0.227831166498 0.620262623057 9.621942434907
888 8.909124851227 -0.009006755671 -0.126046515577 -0.027301027650 -0.158389505502 0.669131020233 9.762964412570
889 8.920567989349 -0.002444897354 -0.114190605101 -0.042220411858 -0.076300874362 0.581849047467 9.851922197342
890 8.930515289307 0.002790646663 -0.109926393176 -0.063559268892 -0.083354617283 0.435004814453 9.817434149981
891 8.940841197968 0.008278196460 -0.105066190766 -0.090584777963 -0.159017277192 0.225407002252 9.755510966778
892 8.950977325439 0.012395361842 -0.094394937567 -0.102003114426 -0.196140756011 0.027101846833 9.641044703722
893 8.959439516068 0.020279638806 -0.093472360309 -0.099726769162 -0.157502482887 -0.008130262717 9.534420726299
894 8.969828367233 0.019843795849 -0.084737399993 -0.107505030468 -0.097060426818 0.092799542500 9.564359639883
895 8.982582807541 0.019772689448 -0.070953702106 -0.123254549036 -0.106470999643 0.200163640380 9.706742264628
896 8.990779876709 0.023393899853 -0.064720128328 -0.124881282731 -0.061277317121 0.259300588779 9.811553020477
897 9.000472307205 0.022221738628 -0.047562063859 -0.136426443919 -0.123124692086 0.247358801980 9.816989761591
898 9.010175228119 0.023260954019 -0.041306506518 -0.155308547331 -0.236840044744 0.232850982863 9.755956524611
899 9.019651889801 0.025679790885 -0.032670674051 -0.158265688116 -0.185428748298 0.231043169964 9.709878126383
900 9.029471397400 0.021445976447 -0.023508915123 -0.148054462706 -0.031769745327 0.319430540577 9.765774584413
901 9.039492368698 0.023630654874 -0.007510454971 -0.149969159017 0.119250811217 0.407685343847 9.894907418489
902 9.050205230713 0.026586414144 -0.008978508478 -0.162719708526 0.223670561928 0.486873673797 10.007074556351
903 9.060022115707 0.025286392058 0.000206372065 -0.153945907670 0.324668037817 0.612960400879 10.004512306452
904 9.070160627365 0.016394094057 0.010808914700 -0.140148436246 0.371641060039 0.726918540895 9.990139850378
905 9.079598188400 0.006374164757 0.026749237317 -0.142215415437 0.324804533757 0.755899388194 9.969991514683
906 9.090646266937 -0.001308561367 0.048864570175 -0.146656552805 0.254681818318 0.616902593672 9.938229439259
907 9.100254058838 -0.009259110990 0.054617281091 -0.134153635666 0.199956868216 0.361089613214 9.950903863907
908 9.109859704971 -0.011419337229 0.073299431039 -0.124021231502 0.189516573306 0.113519808976 9.937960467339
909 9.119613885880 -0.018593705952 0.093321409009 -0.116575757141 0.151979632387 -0.125764024733 9.917090585232
910 9.130298614502 -0.024154706720 0.104684185274 -0.128341003626 0.029052133081 -0.414803634547 9.784496199489
911 9.141228199005 -0.027966214550 0.118367115803 -0.122692056124 -0.227270308882 -0.689175202399 9.641104930043
912 9.150843620300 -0.013315538094 0.122879292994 -0.099465221776 -0.429807955362 -0.876520430446 9.553606610298
913 9.161074399948 -0.002715285446 0.123962026102 -0.104069461116 -0.604116158299 -0.941840919033 9.531845027804
914 9.171177148819 0.005935120805 0.115436623274 -0.118343771532 -0.647801546976 -0.983641348109 9.605047490001
915 9.182356357574 0.022739363517 0.122233742745 -0.131298951681 -0.602492349967 -1.022895095497 9.685955412984
916 9.189889431000 0.039427592274 0.122905541775 -0.136003933412 -0.607096045576 -0.945690652728 9.741558340788
917 9.199039936066 0.050561894284 0.122735365781 -0.149317317050 -0.698036219180 -0.734942821115 9.790826979876
918 9.210035085678 0.056032580601 0.122587385571 -0.161818161918 -0.862078100145 -0.482669964284 9.792460107207
919 9.221381187439 0.055627476349 0.117274820282 -0.156065267910 -0.902445011213 -0.354612579346 9.827507733107
920 9.231410980225 0.052837224218 0.111632122887 -0.144949516481 -0.863004810736 -0.332579576410 9.942439434528
921 9.240581274033 0.056269040178 0.109406394328 -0.160684770492 -0.876450556219 -0.452713143602 10.003409521580
922 9.250456094742 0.061149619932 0.103204216722 -0.176564883822 -0.805273788795 -0.524418280050 9.960975108147
923 9.259616851807 0.066917153003 0.109865906130 -0.176250497655 -0.773295951113 -0.463924339078 9.981958426237
924 9.270978450775 0.063451273549 0.111158180082 -0.187386239437 -0.868493445888 -0.242645233534 10.001900939941
925 9.280329942703 0.053202539179 0.114299536712 -0.189454583498 -0.854017567188 0.024617762330 10.069235136509
926 9.289068698883 0.044379956702 0.115546278932 -0.186460491353 -0.837424046248 0.181001492422 10.155336556435
927 9.299968957901 0.035656069311 0.120965220861 -0.195200619866 -0.907466892377 0.156074190829 10.182472314835
928 9.310147762299 0.024248379250 0.122581085530 -0.211699318938 -0.967063249201 -0.019447259107 10.176376007795
929 9.320400953293 0.030300658338 0.115937480651 -0.205913717983 -0.928265073001 -0.246310725119 10.112297540903
930 9.329634428024 0.033459392095 0.118562575183 -0.212706210211 -0.887194668800 -0.313573201932 10.066237853765
931 9.340070247650 0.031173274278 0.109591042938 -0.233750808751 -0.909646515101 -0.277543097623 9.994824639559
932 9.351758956909 0.040232907220 0.100648247866 -0.237399472602 -1.004914834276 -0.243273845762 9.899560632706
933 9.360442638397 0.043761183707 0.099824948260 -0.238113749051 -1.080307517275 -0.195263088942 9.805815732479
934 9.370463132858 0.050077390380 0.082787699759 -0.239916259701 -1.135628170744 -0.195727832951 9.751558833718
935 9.380788087845 0.059636078905 0.069428422365 -0.252274592160 -1.158502186015 -0.199698293377 9.721519348025
936 9.390784025192 0.071221949007 0.061866688539 -0.253340422518 -1.085370475128 -0.143414128404 9.702410647273
937 9.401504278183 0.079393500950 0.056868555190 -0.253457984436 -0.997843357846 -0.014979462154 9.683841059804
938 9.410237789154 0.081434381161 0.055237880848 -0.264779198743 -1.051436597630 0.069735903852 9.645358779430
939 9.420688152313 0.089732216874 0.038460278070 -0.276489234569 -1.199127909467 0.146095478777 9.546738470793
940 9.430927753448 0.094578961998 0.031239890756 -0.265520173382 -1.286682143211 0.213120485544 9.503374934793
941 9.439990758896 0.098063417002 0.031533377350 -0.247119344791 -1.295402680635 0.237624521814 9.444356648326
942 9.450826406479 0.095879250401 0.010767843763 -0.232829238500 -1.286020530760 0.253738041166 9.409700201154
943 9.459845781326 0.094913654768 0.002227561042 -0.219407405949 -1.187776782811 0.270812111869 9.410000748038
944 9.469633579254 0.097940220834 -0.011537828132 -0.191212136659 -1.082169124559 0.247993444148 9.382091987729
945 9.484591245651 0.092288984679 -0.014884337633 -0.181505546986 -1.140080898553 0.322531136312 9.327161489725
946 9.489546537399 0.093680769309 -0.037801120733 -0.162905713683 -1.227228531539 0.438610536531 9.275016020536
947 9.498966693878 0.087179085949 -0.051937371214 -0.128781174220 -1.264524704218 0.558888310678 9.259364193678
948 9.510788917542 0.084299343283 -0.062244574453 -0.104916654270 -1.313312994540 0.596480608284 9.329877521396
949 9.520787477493 0.082182654526 -0.080514292294 -0.084387876745 -1.249105304182 0.524275279082 9.368618833423
950 9.530595541000 0.080547423683 -0.091054967376 -0.057617960398 -1.045493853092 0.396110999733 9.349331207871
951 9.539460420609 0.080083409475 -0.092909933976 -0.037947840103 -0.859122478813 0.359349006750 9.355614625812
952 9.550613403320 0.074920788478 -0.102473861438 -0.026640582425 -0.764403578639 0.448999430761 9.326741074920
953 9.561750411987 0.067250468419 -0.100337981277 -0.013988557392 -0.730408451557 0.615177080333 9.356309275031
954 9.571120738983 0.066813564359 -0.112142992085 0.007551180010 -0.722544238865 0.733629828840 9.442126520276
955 9.578843355179 0.054436115396 -0.123119701539 0.034501751265 -0.698070206121 0.775804406628 9.568146881461
956 9.588853597641 0.053353565380 -0.129093454824 0.045851032793 -0.608808037229 0.754407032579 9.642556793690
957 9.598710775375 0.049326216667 -0.134374428365 0.060584226671 -0.505010128766 0.701972199306 9.723836599588
958 9.611266136169 0.039652546162 -0.138443164266 0.073679156199 -0.355404036529 0.653255391195 9.762569725513
959 9.618496656418 0.033220032169 -0.135078967631 0.082633211448 -0.247186674569 0.644826702923 9.842276630402
960 9.628570795059 0.030325138614 -0.137687142767 0.072608349059 -0.275599647593 0.670205519199 9.959775259495
961 9.639267683029 0.029565800647 -0.147391152502 0.067395668955 -0.397156628072 0.609380589277 10.070257229805
962 9.650283336639 0.022415689576 -0.146883504064 0.066227298573 -0.493644603342 0.527343276590 10.144112241268
963 9.659138679504 0.022451457078 -0.153947339119 0.072839669566 -0.454226658829 0.489684028365 10.172019832134
964 9.668175220490 0.016814000700 -0.161178237597 0.070546063689 -0.299803813063 0.416065792590 10.198798910379
965 9.680777549744 0.014299735282 -0.156754244329 0.069512678124 -0.122514014365 0.367500171550 10.256032626629
966 9.689749240875 0.010849676669 -0.149917493691 0.062220023436 -0.071538435984 0.302285170387 10.254154500961
967 9.698431015015 0.007996691490 -0.155053483077 0.052163149018 -0.140079150684 0.271944205910 10.266176376343
968 9.708484411240 0.012675537832 -0.159560200787 0.049429418320 -0.247490309514 0.214294368904 10.263242243528
969 9.719620704651 0.010119780156 -0.162493905755 0.039511273788 -0.404561139978 0.166975008789 10.248100293875
970 9.728781700134 0.012274035089 -0.160894877257 0.028585289232 -0.449100075960 0.181323564369 10.200295797586
971 9.739174604416 0.013639615670 -0.158142383757 0.028047488817 -0.399486049153 0.107267280780 10.223132683039
972 9.750509977341 0.023935615947 -0.158901784142 0.021848430022 -0.323915172257 0.006252512208 10.243913687468
973 9.758999109268 0.022352560175 -0.161170081666 0.010525539796 -0.312077557258 -0.040621447675 10.265013949871
974 9.769698619843 0.032106685192 -0.167977204636 0.010151951350 -0.384989522472 -0.065338925589 10.244332348108
975 9.778880596161 0.024331879753 -0.171353676780 0.021164345081 -0.535371832587 -0.038996611512 10.196437804699
976 9.788261651993 0.029304240777 -0.183975878569 0.026220685145 -0.630523024723 -0.053470443687 10.129946776628
977 9.798581600189 0.037437029162 -0.192415003300 0.044245125850 -0.610698113143 -0.196451992337 10.081502594948
978 9.810033798218 0.042213558379 -0.207660851526 0.059425094129 -0.459059090205 -0.315533956066 10.054230011702
979 9.819333553314 0.045163300570 -0.204050171010 0.068684014745 -0.294458854962 -0.341702073365 10.060991731882
980 9.828207015991 0.050643378691 -0.198538492818 0.069350025560 -0.229713385217 -0.251598855592 10.126756535769
981 9.838653087616 0.054464224229 -0.202314056295 0.081726929407 -0.254358960651 -0.064314904539 10.265581129789
982 9.851648092270 0.062374004082 -0.208394319380 0.093987540499 -0.291685520578 0.068179676542 10.356356813908
983 9.858869314194 0.065849862068 -0.210921109978 0.093293953483 -0.362933825031 0.137497678064 10.330018615723
984 9.868662834167 0.066022788608 -0.213009527615 0.100818815012 -0.374508900046 0.131526894299 10.229047726393
985 9.878655910492 0.070346709437 -0.211754446372 0.103894999097 -0.299847173821 0.017484561231 10.151731163263
986 9.889163255692 0.083144804694 -0.207023507143 0.102358854491 -0.276119720880 -0.016593361055 10.099155339003
987 9.899213552475 0.087038004990 -0.203011804501 0.086422523495 -0.206947104894 0.048291135379 10.084878777266
988 9.908991575241 0.099175752810 -0.202813648671 0.081887326606 -0.153165520811 0.287491056975 10.142784923315
989 9.918267488480 0.093812354434 -0.188657632541 0.073518858868 -0.100640128786 0.604425804913 10.161359188557
990 9.929647445679 0.087674342365 -0.172415861936 0.065222791661 -0.036327823517 0.833235100955 10.166556193829
991 9.939147949219 0.081011704207 -0.153998971154 0.050973997657 0.074154219883 0.955535536632 10.178359383345
992 9.951642990112 0.076860726562 -0.121864162565 0.025757382500 0.121054923926 0.941134940833 10.154645415545
993 9.958487033844 0.073972594939 -0.104705224247 0.005240254743 0.116595407864 0.809189961478 10.065033327341
994 9.968934535980 0.073237712281 -0.082689645496 -0.010447903449 0.033819815679 0.696913261414 9.988046547174
995 9.979391098022 0.073295852416 -0.060258605294 -0.023915688012 -0.072399589238 0.618380038887 9.894716799259
996 9.989385604858 0.073124236651 -0.047915660912 -0.041051850061 -0.184802109506 0.656970054209 9.735901744366
997 9.998291015625 0.075047313597 -0.043393438611 -0.050179460190 -0.266550551467 0.771565833092 9.529162325263
998 10.009053230286 0.065081461031 -0.028791819455 -0.037953174748 -0.253575397208 0.865840710327 9.423141780496
999 10.019886255264 0.066751724926 -0.025555348442 -0.037862714656 -0.235159554966 0.948054682016 9.412585217357
1000 10.029262781143 0.059507215198 -0.017524916989 -0.039988399904 -0.260348665640 1.032680483982 9.403368836045
1001 10.038623571396 0.051482261951 -0.017122931548 -0.023534795639 -0.265931660235 1.124080139101 9.380455352068
1002 10.050567626953 0.040321007918 -0.015959896851 0.002464465866 -0.280900769848 1.227774953842 9.401902354360
1003 10.059995174408 0.018189681528 -0.001169929268 0.022359230561 -0.282051373981 1.369514384866 9.431191642284
1004 10.069150447845 -0.001366279401 0.004602638323 0.038904472534 -0.216233671065 1.446725698113 9.431957042813
1005 10.078843832016 -0.021924234406 0.013436126236 0.064466915803 -0.154759298209 1.467983396798 9.480753226876
1006 10.089502096176 -0.044150504569 0.028997005614 0.074222699055 -0.167939415649 1.427710260451 9.539544641376
1007 10.098787307739 -0.058105464519 0.048067673315 0.081953972212 -0.212047393564 1.293514614701 9.575348312259
1008 10.109019517899 -0.074046930423 0.054701070796 0.093710721549 -0.265041111019 1.126209987402 9.560001125336
1009 10.119516849518 -0.084120012673 0.064988849604 0.105255616420 -0.325408258773 1.011494779140 9.520758122206
1010 10.128464221954 -0.101416636420 0.078022397429 0.108297678755 -0.346241924688 0.974014857709 9.463020960689
1011 10.138862371445 -0.105127443471 0.069183344966 0.119042601647 -0.296852869503 0.904059135094 9.458099359274
1012 10.150806427002 -0.112028967179 0.073938556411 0.126321012584 -0.205762733091 0.856018265113 9.449809176922
1013 10.160239458084 -0.116927444208 0.070297715595 0.118422118402 -0.154188847505 0.768012626320 9.475412964821
1014 10.168549776077 -0.117064921577 0.083818043495 0.110169864356 -0.114789952124 0.686543297544 9.453135073185
1015 10.179195642471 -0.113598517812 0.086843228046 0.098616755297 -0.159592168126 0.579848057181 9.424821100831
1016 10.189176559448 -0.106480079633 0.087016142102 0.082669205735 -0.209350328799 0.528784030527 9.408879252076
1017 10.199478626251 -0.105125745705 0.090903791372 0.061904031051 -0.205792663526 0.507609691210 9.374746130705
1018 10.208316564560 -0.099694078859 0.093478302487 0.034527219823 -0.241485383492 0.500050995536 9.403334922194
1019 10.219323873520 -0.095577406058 0.086183479820 0.012074880573 -0.247468967177 0.445808532089 9.414575609565
1020 10.229563951492 -0.096161628700 0.090711835714 -0.003699352077 -0.272210400403 0.426454906091 9.353144761920
1021 10.238422155380 -0.097132550654 0.088073666726 -0.023624874982 -0.299891630933 0.385351830572 9.257973141074
1022 10.248479843140 -0.090255885890 0.083043721086 -0.052111670946 -0.377770367302 0.251972346492 9.209900257587
1023 10.259455204010 -0.088249834832 0.071196698911 -0.070236279798 -0.515387620926 0.194419006817 9.225360880494
1024 10.268928289413 -0.080812100283 0.063656769716 -0.085747545317 -0.636703970209 0.182125656176 9.244174881577
1025 10.278501987457 -0.081214395733 0.042719721273 -0.102649147372 -0.656122719571 0.282284604795 9.225000107288
1026 10.289883852005 -0.079995716573 0.030220170535 -0.104425309372 -0.586588617750 0.368340014443 9.251211420894
1027 10.298738479614 -0.083378705139 0.026270762976 -0.118511284365 -0.383170965314 0.438311597630 9.322945062518
1028 10.309463262558 -0.076967660802 0.020205887969 -0.137205410215 -0.275570411514 0.516419252492 9.420076670051
1029 10.319266319275 -0.074281471691 0.022387938605 -0.175349450390 -0.268538312428 0.545272009224 9.521544572711
1030 10.329519510269 -0.075487916954 0.022191237111 -0.194832138239 -0.272503912356 0.516152729094 9.564105870724
1031 10.338537931442 -0.065059227797 0.021192641168 -0.213092135543 -0.273379770443 0.486956082992 9.566746473312
1032 10.352242708206 -0.063143740860 0.022983546261 -0.231168757561 -0.237683359422 0.481815064810 9.509588186145
1033 10.358735561371 -0.063862944158 0.017128405592 -0.249024586879 -0.146200399753 0.464496416040 9.407608067393
1034 10.368840217590 -0.062392271702 0.021031954766 -0.244411892003 -0.113100216435 0.356724082008 9.363327103257
1035 10.379004955292 -0.061109622581 0.015712401800 -0.232394460808 -0.086866053008 0.211902894247 9.394261797667
1036 10.389286041260 -0.062704672982 0.016718574229 -0.227892270472 -0.109010637263 0.188362570480 9.460358723402
1037 10.399158477783 -0.057001804791 0.005464966763 -0.228257606239 -0.155195080228 0.285360130593 9.561399194598
1038 10.408925056458 -0.056922105534 0.005077223512 -0.227306791151 -0.196200708244 0.404387002587 9.564605222940
1039 10.419260740280 -0.052548050697 0.001207736012 -0.224699273483 -0.196274529342 0.461954960302 9.580098005533
1040 10.429306983948 -0.052095309150 0.007030920048 -0.228512387531 -0.184336232599 0.419625687115 9.611253724694
1041 10.438852310181 -0.049497794981 0.009272447602 -0.240884601718 -0.211804003213 0.291384388972 9.624571927786
1042 10.451680183411 -0.035840892691 0.003933773972 -0.232911679981 -0.248043437842 0.184023571014 9.682558765411
1043 10.458681821823 -0.027543256715 0.001232239825 -0.231871266167 -0.288981877696 0.094947562851 9.738936449289
1044 10.469792604446 -0.024851916052 0.001826807053 -0.219619160545 -0.343648282550 0.094798586760 9.773833217025
1045 10.478972911835 -0.014337431495 -0.002619776792 -0.215551148691 -0.407568728440 0.158079438619 9.774838353395
1046 10.489395856857 -0.012067696280 -0.016059221316 -0.204917462708 -0.431098874398 0.187986484878 9.726756699085
1047 10.498795032501 -0.003478228564 -0.024629793853 -0.187443231084 -0.398487710170 0.199963720422 9.723593940139
1048 10.508652687073 0.000492129901 -0.023043771152 -0.184565435855 -0.320739147440 0.168595199157 9.762497220039
1049 10.519758462906 0.013258477787 -0.019185999221 -0.188681101649 -0.333684627078 0.106123081176 9.843965306282
1050 10.529926776886 0.021966048115 -0.028185769295 -0.190447892650 -0.425994510949 0.089503101585 9.942727117538
1051 10.538688659668 0.038962080037 -0.031874767554 -0.177316294723 -0.543369909972 0.102800053703 9.986035104990
1052 10.548387765884 0.038594472261 -0.038567129087 -0.170624686365 -0.698990777135 0.172342186309 9.936537255049
1053 10.559476613998 0.037253083793 -0.057881122326 -0.164623785481 -0.754146904573 0.236525318362 9.868556356430
1054 10.569594383240 0.040473082738 -0.064973282595 -0.134971808687 -0.632630141973 0.193081803415 9.829058414698
1055 10.579685688019 0.043941421456 -0.069601769185 -0.130274774827 -0.575351292528 0.095794358449 9.866618589163
1056 10.588317632675 0.055438441846 -0.075316259577 -0.138078960342 -0.547331142761 -0.026553366585 9.875902798176
1057 10.598861217499 0.067272734943 -0.070350779080 -0.143569116864 -0.514091841392 -0.015433444774 9.925260314941
1058 10.608989715576 0.087546560567 -0.081867020003 -0.171202608967 -0.569193772450 0.237771487925 9.968147302866
1059 10.619163036346 0.091300352703 -0.090961457132 -0.188148020022 -0.626328890026 0.506653269455 9.916339802742
1060 10.628582239151 0.092320077084 -0.087095962033 -0.183283872804 -0.568276563585 0.663320495859 9.866525033712
1061 10.638994455338 0.090011990269 -0.090187475940 -0.182665653247 -0.493400116637 0.739221009538 9.918100984097
1062 10.648937702179 0.085398771082 -0.100338813515 -0.191167695158 -0.379306540489 0.632151547372 9.990905835629
1063 10.659245252609 0.081765869816 -0.098094967138 -0.186632498270 -0.273993801177 0.452909756228 10.032596483231
1064 10.668849945068 0.082877964275 -0.095815892134 -0.192705537530 -0.249201204814 0.376601764709 9.998465116024
1065 10.679510116577 0.072035553042 -0.087859964693 -0.201311559237 -0.229332950749 0.424229273088 9.858510839939
1066 10.690070390701 0.067561750339 -0.080787332885 -0.209894644470 -0.207648642864 0.418731099665 9.735166164637
1067 10.697790145874 0.058092627251 -0.068278793979 -0.214284332894 -0.243202400096 0.340691601411 9.670469062328
1068 10.709073543549 0.051823616785 -0.062884544546 -0.234360439614 -0.340269432440 0.251909269653 9.618036494851
1069 10.718760251999 0.055778922830 -0.057575894937 -0.238276301746 -0.357492004149 0.161664622352 9.613827084303
1070 10.727880477905 0.051308486529 -0.053986111912 -0.237951262935 -0.286722897291 0.099889401114 9.651259204745
1071 10.739544630051 0.051402937201 -0.044960072250 -0.259947991499 -0.317694721520 0.099240323631 9.660086161494
