# index timestamp wx wy wz ax ay az
0 0.031955242157 -0.000257926193 0.001977878507 -0.000195676119 -0.179011282939 -0.542298042253 9.799179142714
1 0.041378736496 -0.003136752275 0.000608904931 -0.003111638458 -0.163655800279 -0.535940657035 9.793311461806
2 0.051658153534 -0.000705811160 -0.003415603967 -0.005555682768 -0.159461062588 -0.533049976341 9.815294069052
3 0.061516523361 0.005674127377 -0.001554750063 0.001864786877 -0.155180955548 -0.540480983444 9.815986379385
4 0.071797609329 0.000087938395 -0.003634463793 -0.003840940701 -0.185271567833 -0.530125418343 9.818246912956
5 0.082107067108 -0.002620227500 0.002956860685 0.002651952927 -0.179565708619 -0.541238417141 9.809796516895
6 0.091524362564 -0.000708417300 0.000002124874 0.002687196379 -0.173592339288 -0.554011477008 9.802505038977
7 0.101114511490 0.000338601069 -0.005388874737 0.001592675792 -0.176608899571 -0.526034267731 9.799623531103
8 0.112015485764 -0.001429299962 0.003786698820 -0.002213195317 -0.188968817107 -0.533571255617 9.813666204214
9 0.121846914291 -0.000684371413 -0.002821658706 0.000950835764 -0.202807203121 -0.562519504689 9.817269258499
10 0.131997585297 -0.002621100310 -0.002301725137 -0.000010601467 -0.198385611735 -0.566115469225 9.813115396500
11 0.141360759735 0.003541341580 0.000239463939 0.000259758351 -0.177474634666 -0.553430921584 9.816721959114
12 0.151924848557 -0.003045863320 0.004300097241 -0.002836271762 -0.169285682235 -0.552534031793 9.796777106524
13 0.161770343781 -0.000263974904 -0.002358837979 -0.001145882796 -0.165046304706 -0.566916099228 9.800619311929
14 0.172796726227 -0.000008144250 0.001046480633 -0.002953338758 -0.157010330055 -0.559846486598 9.798352346420
15 0.180991411209 -0.002230108470 0.003391294559 0.000854942394 -0.186107427310 -0.552527563311 9.780774446726
16 0.191775798798 0.001313381974 0.000199194388 0.000466867223 -0.192528126910 -0.535650306232 9.798207335472
17 0.201682567596 -0.000047570666 -0.004837455270 0.001872999764 -0.167180903871 -0.524668869786 9.835779204369
18 0.211896657944 -0.001403457416 -0.000390920709 -0.001801833546 -0.159012252241 -0.551290694475 9.840606665611
19 0.221193790436 -0.000388705949 -0.004497525123 -0.001596234649 -0.172984703947 -0.554485613108 9.832404191494
20 0.232725381851 0.000453159681 -0.004931602695 0.000300340398 -0.169677957315 -0.546952425912 9.816099815369
21 0.243264913559 -0.000583518100 0.002233056413 -0.001463995567 -0.171597433761 -0.556221724525 9.805301177502
22 0.252206087112 -0.001648687089 0.001242618221 -0.000087706726 -0.189100708365 -0.553603268266 9.838116921186
23 0.261384248734 0.004894469803 -0.002142187354 0.003782545953 -0.166973656621 -0.522039851993 9.838015179634
24 0.271517753601 -0.002589965512 -0.001090997230 0.001408695833 -0.165095823314 -0.532057009488 9.804727565646
25 0.282320261002 -0.000115378943 0.005208180817 0.001488074549 -0.177230422050 -0.537523534857 9.808477385044
26 0.291620016098 -0.002885592518 0.001108257973 0.001432125669 -0.153257468278 -0.544004954137 9.812198553085
27 0.301146507263 0.000354868751 0.006437636417 0.004585926467 -0.179528798070 -0.533309409991 9.833661342859
28 0.311854839325 -0.001918170773 -0.002251207000 -0.003089585716 -0.179691478573 -0.538873108774 9.811540156603
29 0.321474313736 0.001865576203 -0.005484054658 -0.000650144591 -0.185222506039 -0.547274680585 9.815953634977
30 0.332207202911 -0.002057907278 0.003212802429 0.002625623522 -0.174536536708 -0.552210826948 9.835684479475
31 0.341686964035 0.001322745690 -0.000352336635 0.002860519792 -0.169859001730 -0.544500469118 9.825470563173
32 0.352055311203 0.001756602460 0.002766745573 -0.000472901760 -0.183258974478 -0.562563102990 9.821203265190
33 0.361760377884 -0.001631741036 0.001710047725 -0.001161602468 -0.162360313106 -0.557806137241 9.814642689228
34 0.372118473053 0.000878299019 -0.002509460285 -0.000816721286 -0.167928068396 -0.550710504502 9.810912165642
35 0.382504940033 -0.002838329210 0.003909281472 0.000772792847 -0.172466403097 -0.541053535491 9.807999082804
36 0.391672611237 -0.001413781717 0.002971864113 -0.000277670791 -0.172568382192 -0.568072788119 9.802658236027
37 0.401656866074 -0.001999877674 0.002576633062 -0.000661966270 -0.170466015805 -0.550403087139 9.823469645977
38 0.411616563797 -0.000468718400 0.003160669230 -0.001384271863 -0.168516060747 -0.543326055855 9.820049024820
39 0.421907186508 0.000990599828 -0.000292409334 0.001418352393 -0.185360116605 -0.573649935499 9.785719437003
40 0.431136369705 0.000685284989 -0.002404741878 -0.001285722550 -0.187244345304 -0.561720701940 9.792127985358
41 0.441958665848 0.001074362226 -0.001317017033 0.000554717665 -0.163048256300 -0.560824835412 9.831196156740
42 0.453452110291 0.001076246400 -0.007122575962 0.001713492540 -0.161437786929 -0.548420296311 9.833434470892
43 0.461125135422 -0.001630609583 -0.001754694424 0.002135492781 -0.173767554760 -0.554916918352 9.802452998757
44 0.471507310867 -0.003461005922 0.001247735573 -0.002378116509 -0.176133612301 -0.547823551409 9.806441969275
45 0.481679677963 0.002217452734 -0.001955332274 -0.002087718167 -0.158477652278 -0.554861625619 9.830871051550
46 0.491405487061 -0.004117196071 0.002743885300 -0.000119248979 -0.167336567715 -0.530473729670 9.803838204145
47 0.502166986465 -0.002106231168 -0.001216030043 -0.005872346145 -0.187503048051 -0.510707582608 9.796203494668
48 0.511462211609 -0.003680859232 0.003651318170 0.001718806118 -0.169384792540 -0.522359621599 9.796402300000
49 0.521710634232 0.000513674653 0.005044992501 -0.001178595334 -0.177742656413 -0.533350450136 9.804832815528
50 0.531752586365 0.000514660042 0.003034214591 0.000149160298 -0.174202130791 -0.535177814662 9.816543034315
51 0.541741609573 0.001982710688 -0.003463297177 -0.000441028644 -0.176741649639 -0.551996197589 9.815163091421
52 0.552397489548 0.002580909724 -0.003430002201 -0.000110828057 -0.172715293486 -0.554184883498 9.812986757755
53 0.561389684677 -0.003395273696 -0.002283985208 -0.003020726357 -0.171457045767 -0.542457853965 9.822927024364
54 0.571814060211 -0.005706736017 0.002597467616 -0.002344786944 -0.156454844568 -0.539056967162 9.828868964911
55 0.582242488861 0.002897128114 0.000014658532 -0.000075116438 -0.166419431940 -0.544440352432 9.813709473610
56 0.591710090637 0.000717011651 0.000503812244 0.002449157111 -0.184482961167 -0.547327342071 9.811146054268
57 0.601093292236 -0.000795243698 0.000931761718 -0.001237900993 -0.185109855775 -0.542118532732 9.823553845882
58 0.611763477325 -0.000508734346 -0.004510980328 -0.003330246273 -0.183868692890 -0.564581817649 9.806992776990
59 0.621308565140 0.000643479081 0.004888691472 0.000018471968 -0.159830716252 -0.551670032591 9.783759450316
60 0.632044315338 0.004128860144 -0.002005062646 -0.005580263433 -0.182745296583 -0.556199907102 9.803006730080
61 0.641816377640 0.000963614061 -0.001717887145 0.001790327988 -0.168299732041 -0.540324095339 9.805657857656
62 0.653000593185 0.005892577847 -0.003371370525 0.003286826864 -0.154406236019 -0.532372686043 9.797844223380
63 0.662292718887 0.001103717595 0.001173664845 0.001425871142 -0.163967822324 -0.543304019161 9.806739592552
64 0.671323299408 0.000158439067 0.001370027463 -0.001836952943 -0.174927770253 -0.537832560204 9.813656848669
65 0.681717634201 0.002475514864 -0.001039201283 0.000477941643 -0.159457225353 -0.535551342107 9.825950034857
66 0.691674470901 0.001479936043 -0.004818379858 -0.000604694392 -0.164952420350 -0.528038035445 9.801560128927
67 0.701393365860 0.001940744315 -0.005442376707 0.001473837560 -0.166283246633 -0.541760536954 9.817147636414
68 0.711926221848 0.002769046450 -0.005630522796 0.001400751343 -0.157193457540 -0.556968669780 9.800339815021
69 0.721645116806 -0.000866129491 0.000338947228 -0.001350394842 -0.167080806848 -0.551641673595 9.794101420641
70 0.731212377548 -0.000003096388 -0.003458139122 0.000481906314 -0.162583457474 -0.532973231636 9.841247520447
71 0.741484165192 -0.000162093713 -0.003400496249 -0.001129037001 -0.152282463340 -0.547994436286 9.817965077162
72 0.752639055252 -0.000699084598 0.000984206486 0.000570556126 -0.161639004238 -0.561231984347 9.825539560318
73 0.761421918869 -0.000837734577 -0.000006939851 0.001359401346 -0.162466056347 -0.563257459849 9.814381903410
74 0.771581172943 -0.001424372854 -0.006721107548 -0.000189532237 -0.152050082199 -0.550539838895 9.817051742077
75 0.781152963638 -0.003787681901 0.000277444917 -0.000921585270 -0.159871372674 -0.561235967763 9.837012966871
76 0.792059898376 0.002166743182 -0.002369337960 0.003192276323 -0.196141943727 -0.542072339728 9.809473750591
77 0.800820827484 -0.004245081118 0.001644976609 -0.002382422299 -0.169974155333 -0.537594286166 9.809989475012
78 0.810304403305 -0.003113505792 0.005185792579 -0.001042554486 -0.161215446554 -0.541377617419 9.805807546377
79 0.822129964828 -0.003446345012 -0.002654428835 -0.005093598311 -0.155904018581 -0.534441979118 9.790572041273
80 0.831074237823 -0.000683936373 0.004588626038 -0.003262070389 -0.162747124694 -0.538336590193 9.818604762554
81 0.841802835464 -0.000276006608 -0.000809585042 0.000377593395 -0.189561834410 -0.532702761367 9.820370621681
82 0.851955652237 -0.004067217328 0.001411424923 -0.001372948617 -0.173529774081 -0.552831362709 9.813943362236
83 0.861797332764 0.000093059372 -0.001926407197 0.000713723271 -0.161543420535 -0.552655873150 9.811679320335
84 0.871383666992 0.001698836571 -0.005047334730 -0.002374855177 -0.157739112396 -0.538764569834 9.797417961359
85 0.881792783737 -0.004878797725 -0.002783959893 -0.000741420211 -0.158838005215 -0.529689873867 9.795415289998
86 0.890241622925 0.003305839858 -0.002414861370 -0.001046235968 -0.142331105294 -0.522373070195 9.816262367964
87 0.900909423828 0.002941209412 -0.003573267524 -0.000358324521 -0.154555869922 -0.533952055536 9.825187557936
88 0.911064863205 0.002389896575 -0.005615255913 0.000370504354 -0.174836535417 -0.548794993199 9.806029740572
89 0.922037363052 -0.000458888728 -0.001741305278 0.001790267261 -0.186898811404 -0.534074664339 9.795069134831
90 0.930888652802 -0.000489029782 -0.000841383744 0.002442849008 -0.191141587626 -0.546450003907 9.808132399321
91 0.941048622131 -0.001173052370 0.000778439386 0.000699805003 -0.170031786952 -0.546036861576 9.815373591185
92 0.952645301819 -0.000879643929 -0.001334867754 0.001889114620 -0.140016183481 -0.532079265453 9.815536143780
93 0.960512161255 -0.000139377911 -0.003660021037 -0.002156879473 -0.163826337978 -0.524292601459 9.818221185207
94 0.971211671829 -0.000510497032 -0.000463181092 0.001571314327 -0.172082113121 -0.522751933224 9.799771465659
95 0.981085777283 -0.001600683611 0.003157104912 0.003180114207 -0.166919405423 -0.542612768635 9.805354387164
96 0.991268157959 0.001195962708 -0.004425642660 0.002563939874 -0.165595705435 -0.564690795131 9.810439710617
97 1.001132726669 -0.000713423340 -0.002728937788 -0.003120039639 -0.165277141817 -0.556562324837 9.794360452294
98 1.010619640350 0.001908066236 -0.000778163707 -0.004458536340 -0.155489670262 -0.536824938767 9.799838123918
99 1.021578550339 -0.000034878771 0.001619754471 0.001556738332 -0.166548783313 -0.533339303881 9.813752743006
100 1.030787944794 -0.000476151519 0.002843258659 0.002763320654 -0.174290734380 -0.531091963090 9.853060065508
101 1.041009902954 -0.002270488390 0.003365602337 0.000643019270 -0.172529553026 -0.526777887382 9.828087776899
102 1.053197860718 -0.002056371019 0.002111512367 -0.001076322991 -0.173778682742 -0.534287539534 9.839223214388
103 1.060087680817 0.000412973516 0.003608515658 -0.000477556018 -0.159327307530 -0.537585880794 9.832034647465
104 1.071874856949 0.000464856589 0.002832367267 0.001015103511 -0.162695194110 -0.565180718713 9.815636715889
105 1.081259727478 0.000459205824 0.005256257117 -0.000381918431 -0.170927945841 -0.550289651155 9.803965673447
106 1.091073989868 -0.000502376927 0.000867940324 0.002214116240 -0.188816424049 -0.535756725557 9.792496359944
107 1.100124835968 0.002469536535 -0.002427248970 -0.000572296674 -0.182796916533 -0.535801383667 9.813403079510
108 1.110843181610 -0.002644324427 -0.000911024497 0.002949772359 -0.173974199016 -0.547588931881 9.812617213726
109 1.120464324951 -0.003809754929 0.003404342488 -0.000058010086 -0.170657640025 -0.523478230499 9.830775157213
110 1.131488084793 0.000822204758 -0.000431541750 -0.000037741576 -0.162730259132 -0.549008197300 9.827292555571
111 1.140587329865 0.001126294778 0.001631691882 -0.001739533652 -0.156698892731 -0.543908438534 9.815372421741
112 1.152132987976 -0.002124237544 0.001137544292 -0.000095555631 -0.166797216889 -0.551382568851 9.809183728695
113 1.160638570786 -0.000871414592 0.002455356763 -0.001737232904 -0.176706347074 -0.560153648145 9.817987296581
114 1.171194553375 -0.001881165058 -0.002088603200 -0.003556992853 -0.177513244562 -0.564057541676 9.799913552999
115 1.181008577347 -0.002965619728 0.000224333887 0.001146511395 -0.158030870184 -0.555798093751 9.797712076306
116 1.191213846207 0.000221796407 -0.004185779751 -0.000793618884 -0.161390406210 -0.557929805852 9.780099678040
117 1.200755596161 -0.000767990380 -0.003946803955 0.000120304328 -0.165319534130 -0.553532370776 9.815536143780
118 1.211357116699 -0.002065519523 -0.002166958523 -0.000307869582 -0.159112897441 -0.551454708874 9.818494834900
119 1.221254587173 -0.004270172049 0.006030756897 0.001447444827 -0.158992664069 -0.546896256097 9.804597172737
120 1.230780839920 0.002103775676 -0.004137334666 -0.000967034493 -0.170732959472 -0.550811624788 9.815332660675
121 1.241813659668 -0.002318011512 0.000417604140 0.002809367594 -0.176233380418 -0.543936724439 9.835918368101
122 1.252715349197 0.000343746477 0.007972819268 0.001712331308 -0.182151073292 -0.555453436933 9.832132880688
123 1.260505199432 -0.002150992170 0.004660138675 0.001477284975 -0.166532429382 -0.563555923663 9.825544238091
124 1.270721673965 -0.001311828030 0.004496251799 -0.000606632596 -0.158835538421 -0.576657779776 9.829022161961
125 1.281336069107 -0.001603047946 -0.004834684438 -0.000711323695 -0.173065066617 -0.550163460933 9.822369199991
126 1.291481971741 0.002856479017 -0.002724239805 0.004376115666 -0.171276512984 -0.548422744833 9.815696357489
127 1.300598859787 -0.000884002969 0.001637999205 -0.004576137269 -0.184689568877 -0.548936130367 9.813805367947
128 1.310467958450 0.000968610739 -0.002000768038 0.000012050567 -0.181682071779 -0.559630870521 9.812579791546
129 1.322072505951 -0.000030936341 -0.000976103870 0.000451404927 -0.184300272223 -0.536224246994 9.808497850299
130 1.331323385239 0.003278324514 0.001512139616 -0.002393116816 -0.153449631538 -0.536951055899 9.815819149017
131 1.340900421143 -0.002694714608 -0.002158495835 -0.001785285277 -0.156718444359 -0.539482936822 9.824118686914
132 1.352509737015 0.001521397742 0.001462852411 -0.001877792934 -0.162884388082 -0.535829377212 9.819181298018
133 1.360425472260 -0.002967693301 -0.004324987654 -0.002223495040 -0.156695932578 -0.536549388729 9.809870191813
134 1.371382713318 -0.004371949275 -0.001809809505 -0.003979835475 -0.146180985169 -0.544249733202 9.799824675322
135 1.380877733231 0.000759689587 0.002043230764 -0.000688454190 -0.166359059438 -0.544956807755 9.826772153378
136 1.391147613525 -0.000628998338 -0.003013659097 0.000817722963 -0.170428648442 -0.547115672864 9.835102096796
137 1.400658369064 0.000986801703 -0.003465125239 -0.001624226579 -0.149438030468 -0.548760677353 9.817952213287
138 1.410374403000 -0.003602748249 0.000879126771 0.001248598240 -0.162291516960 -0.543359129168 9.796858382821
139 1.421798706055 -0.000596814270 -0.003310917809 0.000553985165 -0.173065505158 -0.530657807328 9.819854897261
140 1.431170225143 -0.004297841096 -0.001738567476 -0.007129494459 -0.168182623275 -0.559664126560 9.810341477394
141 1.440796136856 0.000910106434 0.000007297060 -0.002806165559 -0.176763613243 -0.560235326439 9.804441052079
142 1.452802896500 -0.002764081632 0.000652009454 -0.004298970339 -0.176741777547 -0.561314576268 9.799052258134
143 1.461194515228 -0.003841048112 0.002487764885 -0.001110094878 -0.161529113129 -0.574166281186 9.830589215755
144 1.470635652542 -0.000384744692 0.000998306415 -0.000667691091 -0.170333137829 -0.552350283042 9.808165143728
145 1.480859994888 0.002261855743 0.000421030554 0.000231570293 -0.159973644130 -0.523240395002 9.797270611525
146 1.491197824478 0.002745443145 -0.000580783224 -0.000681751749 -0.161923379917 -0.533652276099 9.781929271817
147 1.500941514969 -0.002092005233 0.000346072355 0.003997473196 -0.183370491844 -0.552605038919 9.797577005625
148 1.510723352432 -0.000989742168 -0.002653611421 -0.002540117586 -0.167143737506 -0.537141528949 9.789100297093
149 1.521944761276 -0.003304391244 0.000275026193 -0.000242371342 -0.175775817521 -0.554658909962 9.807303264141
150 1.531170129776 -0.002345198901 0.001336370204 -0.003319654486 -0.173790121358 -0.539987039901 9.804279084206
151 1.540921211243 0.001507656325 -0.009547150587 0.000360491785 -0.167720218152 -0.531241834536 9.811687506437
152 1.553527593613 0.001280977754 -0.001555996600 0.002172244144 -0.194270414449 -0.526621620543 9.807759346962
153 1.561218261719 -0.000126674458 -0.000454681441 0.001624398878 -0.189068767950 -0.519148476943 9.805285390019
154 1.570357561111 -0.000465506417 -0.002113080876 -0.002163839192 -0.173208908122 -0.534429882690 9.817933502197
155 1.581732988358 0.001650360147 -0.003290460623 -0.003555675317 -0.154349463210 -0.542830248512 9.795483702421
156 1.591154336929 0.000852757055 0.003638929790 0.000224615824 -0.171013077646 -0.552207464799 9.791623370647
157 1.600522756577 0.000996213012 -0.003189677920 -0.000097362611 -0.171065446772 -0.531768083945 9.823723415136
158 1.610409736633 -0.004500278270 0.001522158069 -0.000199374229 -0.158705218602 -0.533727120459 9.813688423634
159 1.621913433075 -0.000449755503 -0.002562616616 -0.002200328920 -0.168813519571 -0.540894966312 9.793684514165
160 1.630935668945 -0.001816321897 0.004240164673 0.000217870098 -0.171883033700 -0.549888057075 9.792454844713
161 1.641074895859 0.000274675515 -0.002388045886 0.000548030113 -0.163562866095 -0.533131581545 9.792375907302
162 1.650204420090 0.001920924180 -0.001120221522 -0.004226411163 -0.172751820311 -0.539954953305 9.782419268489
163 1.662197351456 -0.003620740711 -0.001731593453 -0.002571135351 -0.179407303892 -0.556984932348 9.817886724472
164 1.670765161514 0.003709135033 -0.000338671062 0.000729048281 -0.175967167653 -0.555868114159 9.825336077213
165 1.681153535843 0.001104576881 0.000056911707 0.002161766139 -0.157630080096 -0.541250221208 9.826776831150
166 1.690543174744 -0.001597659596 0.004357579128 0.003708412547 -0.170221657008 -0.549822312444 9.808872656822
167 1.700908184052 0.001367658576 0.002297088532 -0.000793269149 -0.180691845808 -0.535345045030 9.820798637867
168 1.712357521057 0.001573028347 -0.000622004224 0.004349378985 -0.170919887647 -0.545577453151 9.803718920946
169 1.721967697144 -0.003455628105 -0.001020536659 -0.000061147729 -0.177022023629 -0.560981138796 9.790848614573
170 1.731063842773 -0.000106487936 0.000525805885 -0.000395585435 -0.161444401592 -0.552335372642 9.813814723492
171 1.741537332535 -0.002087117136 0.000958351197 0.000231779962 -0.169498813245 -0.539278028458 9.819877116680
172 1.750709295273 -0.002757877038 -0.002066389732 -0.002328448034 -0.180919393860 -0.565721586160 9.815392302275
173 1.761073827744 -0.000884773505 -0.002024422839 0.002869458547 -0.168610602915 -0.558948500454 9.803567478061
174 1.771236658096 -0.002363180180 0.003210934315 -0.000292342072 -0.160480049551 -0.549651902653 9.830115591288
175 1.781137704849 0.000355636946 0.000121077049 -0.004726103407 -0.164944307338 -0.545601719096 9.833256715536
176 1.791542291641 0.000555278840 0.002943619781 -0.000117270025 -0.171816558167 -0.532948709875 9.810218685865
177 1.801181793213 -0.002415238738 -0.000335717885 -0.000700623392 -0.166506738178 -0.571635204256 9.804683126807
178 1.810584306717 -0.000490375147 0.001458712807 -0.002663940273 -0.161371676847 -0.546904442199 9.815103449821
179 1.821983098984 -0.001063141254 -0.005420873762 0.000918291949 -0.151591559993 -0.524233800396 9.823270840645
180 1.831012725830 0.002142253543 0.001281834959 -0.000182689470 -0.162058322690 -0.548115510195 9.813901262283
181 1.840803861618 -0.002794894197 -0.001472407541 -0.003071884277 -0.158668490779 -0.544395730868 9.804222366214
182 1.853507280350 0.000800673530 -0.003040215026 0.001582276720 -0.158151414189 -0.530544005893 9.826958094835
183 1.860334634781 -0.003163659045 0.002467018756 -0.003180500158 -0.167460729685 -0.534605993517 9.838986986876
184 1.871571779251 -0.001047080559 -0.001024145255 -0.000232713466 -0.167624908537 -0.520784966424 9.822854518890
185 1.881127119064 -0.006434341275 -0.007403046356 0.000981678303 -0.167655825689 -0.527606291659 9.823291890621
186 1.891746997833 0.000284643222 -0.006655424217 -0.003878874102 -0.167994306386 -0.539087847769 9.815470654964
187 1.900524616241 0.000390058043 -0.000955877760 0.001066374628 -0.165454074908 -0.542013136670 9.804777266979
188 1.910943508148 -0.002768259726 0.001544801310 0.001337790860 -0.162774040159 -0.547556772195 9.794794315696
189 1.922423124313 0.002493653487 -0.000199811577 0.002537541030 -0.155257426165 -0.537218492925 9.813371504545
190 1.931457042694 -0.003022864948 0.002623237861 -0.003650171242 -0.167619591225 -0.566764912158 9.807476341724
191 1.940934419632 0.003372508611 -0.001402715424 0.001970601237 -0.159370047022 -0.558920872360 9.798320186734
192 1.953251123428 -0.002838227781 0.000411548439 0.000003969442 -0.172506456524 -0.563207831606 9.798200903535
193 1.960658550262 -0.002121304036 -0.004837827176 -0.002066725358 -0.176213609520 -0.545506409481 9.804918769598
194 1.971188068390 0.000803082924 -0.004587252325 -0.000031581563 -0.164098324869 -0.526049141586 9.799932264090
195 1.980748653412 -0.001504359363 0.003988613504 -0.000767144358 -0.170884950534 -0.533301918246 9.798043613434
196 1.990264177322 -0.002785049604 0.001830669677 0.001276488611 -0.174793686289 -0.548542283848 9.823218215704
197 2.000009536743 0.003098914582 -0.000171953862 -0.000547968411 -0.168082215618 -0.551021430194 9.820612696409
198 2.009702682495 -0.003494733140 -0.002962007556 -0.001067167660 -0.161317352559 -0.557598195635 9.822983157635
199 2.022608041763 -0.002948824908 0.004893787889 0.001077897416 -0.155095275566 -0.554133793451 9.842856674194
200 2.030086994171 -0.000232405635 0.000982996100 -0.002678163478 -0.175912258644 -0.556426194347 9.825359466076
201 2.041600465775 -0.001047681721 0.002939267177 -0.003223874573 -0.171802689303 -0.543685513437 9.802702090144
202 2.050298690796 -0.000390473349 -0.001155219204 -0.002945956809 -0.163616697025 -0.515366351679 9.824069570303
203 2.059779644012 0.000355658954 0.005551187643 0.001036815621 -0.172689419556 -0.534252383150 9.834601575136
204 2.070134401321 0.002770852407 -0.001610380612 0.001489193258 -0.171787468269 -0.552519231029 9.815125669241
205 2.080859422684 -0.004284148183 0.002239806122 -0.004896137400 -0.152987390868 -0.542214098163 9.797670561075
206 2.090755224228 -0.000974692577 -0.000065145823 -0.002376611979 -0.158192545697 -0.548754976317 9.798776854277
207 2.099882364273 -0.001181536125 0.001489304700 0.001761912007 -0.183476271629 -0.516710114926 9.801180644631
208 2.109585762024 0.001452148531 0.001567584601 -0.001662038655 -0.161951574460 -0.534901862629 9.819913369417
209 2.123124122620 -0.001209060961 -0.004133936275 -0.001380565804 -0.164087050706 -0.564478833564 9.805226917863
210 2.130833864212 0.003312695417 -0.001190965379 0.000675360553 -0.164446782377 -0.566302580126 9.804765572548
211 2.140852689743 -0.000651090742 0.001719038495 -0.000767342795 -0.186642520633 -0.554816821329 9.803252313137
212 2.150236368179 0.000188754452 -0.001518265277 0.003176465885 -0.173810275979 -0.533505547531 9.806099322438
213 2.160047531128 -0.003833112464 0.003287087979 -0.001231209931 -0.164241216201 -0.565906358175 9.812179841995
214 2.171480417252 -0.003165314938 0.000411010670 -0.000952217474 -0.159681447800 -0.556799429432 9.813258068562
215 2.181058168411 -0.003285161088 0.005177242896 -0.001520792939 -0.173160449322 -0.543043087162 9.818142832518
216 2.190635442734 0.001227195683 -0.006287850250 -0.000910480876 -0.178429338802 -0.542499515377 9.816540695429
217 2.200322628021 0.000806802377 -0.002721707462 -0.000428030747 -0.174998576380 -0.552941217273 9.806257781982
218 2.210383653641 0.000413495356 0.000750737894 -0.002222075295 -0.168777632285 -0.547917910852 9.816973389387
219 2.223167657852 -0.001606982351 -0.003259241561 0.000831091563 -0.172538798936 -0.536687090658 9.805837951899
220 2.230612516403 0.001346345615 -0.000219751410 0.002188288519 -0.173022820484 -0.547148599997 9.813628782034
221 2.240990638733 -0.000527748315 -0.000510299766 -0.000120246583 -0.182114436831 -0.548290817030 9.824906891584
222 2.250174522400 -0.002503786763 0.002518680960 -0.001476918400 -0.178963573314 -0.540042076819 9.837810527086
223 2.259750843048 0.000280428490 0.000374652897 -0.003544834639 -0.177485214472 -0.536351570114 9.813736370802
224 2.270632743835 0.002355549079 0.002356305375 0.006428388694 -0.167924523521 -0.532275658809 9.805654349327
225 2.279938459396 0.000875250298 0.001036897479 -0.001545608971 -0.154949277900 -0.535477557555 9.813504821062
226 2.291946649551 -0.002841664664 -0.000970828133 0.001419274227 -0.149045837615 -0.545166138075 9.824705747366
227 2.300198554993 -0.000533705902 -0.001523288612 0.002775762870 -0.165257370919 -0.559263519198 9.811385790110
228 2.310000181198 -0.003047322858 -0.000159636855 -0.004367290304 -0.162102980800 -0.538232217394 9.804390766025
229 2.322351455688 0.001515070264 0.000086629823 -0.000879892300 -0.176958270706 -0.550846671537 9.837968401909
230 2.330131530762 0.003410534598 0.001739915441 0.001393135977 -0.173509144373 -0.525464968197 9.824056706429
231 2.341133594513 -0.001985509868 0.001469629037 0.001778622563 -0.185259160772 -0.550936718658 9.799970855713
232 2.350015640259 0.002432653835 -0.000724126309 0.001157267679 -0.186034483295 -0.549344923832 9.790696586967
233 2.359549045563 0.003666245136 -0.005172356099 -0.000037440483 -0.176298796143 -0.554428200759 9.782902833223
234 2.370417833328 -0.000595839447 0.002426263028 -0.002334140801 -0.165553897843 -0.567485106401 9.802472879291
235 2.381184816360 -0.002403828237 -0.000623252126 -0.003531066044 -0.161901379768 -0.559837350324 9.835641210079
236 2.390143632889 -0.001453738496 0.003220255119 -0.002006521273 -0.168615116235 -0.546442548707 9.802549477816
237 2.399540901184 -0.000800784647 0.008595978157 0.000909664633 -0.168398239352 -0.533864858933 9.817272766829
238 2.410383224487 -0.005450724052 0.000367883033 -0.001183939472 -0.168867843859 -0.558246103674 9.842089519501
239 2.422740221024 0.002093892332 0.002012129775 0.000746165528 -0.177587485928 -0.561566116177 9.826555806398
240 2.429839611053 -0.001599943179 -0.004623571705 0.000868818790 -0.172200976051 -0.566216589510 9.809408261776
241 2.440002202988 -0.002499380584 -0.002746011667 0.000695702136 -0.168788595814 -0.549808900394 9.819767189026
242 2.449591875076 -0.000072064596 0.002755752491 0.002449741238 -0.161263813991 -0.546003057361 9.820172985792
243 2.460784196854 0.001528006100 -0.000274816638 -0.003142692893 -0.159628567044 -0.527360452786 9.805845553279
244 2.470388650894 -0.001967856023 -0.001299151747 -0.000882965923 -0.169451944157 -0.543968628310 9.806335549951
245 2.481534242630 0.004374861587 -0.003798920492 -0.001987408020 -0.167117278855 -0.524783950299 9.829885210991
246 2.490205526352 -0.001184957923 -0.000799848184 0.000439826581 -0.165974385738 -0.527651899941 9.809640980959
247 2.500180482864 -0.000811589955 -0.003931550596 -0.001893752135 -0.160152788199 -0.532690555304 9.806185861230
248 2.510343790054 -0.003214592000 -0.000490987427 -0.001571486626 -0.165725367442 -0.542990462221 9.834875224829
249 2.522277355194 0.000869196873 -0.003066867963 0.002099723198 -0.170630176384 -0.551301950365 9.810423338413
250 2.530263423920 -0.001083860465 -0.002796338910 -0.002853062421 -0.185405213255 -0.513998176306 9.804347496629
251 2.540895223618 -0.002307061602 0.002375551916 -0.001847813256 -0.169245975986 -0.521463535801 9.817027183771
252 2.550212621689 -0.000398918222 0.002554510359 -0.003214108002 -0.170463750008 -0.551878522374 9.812378647327
253 2.559681892395 -0.002539715511 0.002193753201 -0.000781732057 -0.160873293076 -0.555966128111 9.819486522675
254 2.570414066315 0.002150273195 -0.004589007307 0.000426834308 -0.180858400092 -0.553938825354 9.840508432388
255 2.580513000488 -0.001047418201 0.002412401587 -0.000524931580 -0.178580763415 -0.548509575985 9.842757271528
256 2.590471744537 0.000435229572 0.000507237326 0.000265727041 -0.175985805653 -0.545163068287 9.807918391228
257 2.600688219070 -0.002608577731 0.001528215330 -0.000357830250 -0.172164960857 -0.549286963306 9.804511803389
258 2.609710454941 -0.000820150821 0.001303376785 0.000718890493 -0.179168061409 -0.555575205199 9.788165912032
259 2.621573686600 0.001257322823 -0.001938954613 0.001929275297 -0.176766171400 -0.543567947857 9.801689937115
260 2.630614280701 -0.000064218402 0.001559230624 -0.002789060730 -0.171378492080 -0.554096919447 9.800129899979
261 2.640526056290 -0.007212062856 0.001016840742 -0.001584194118 -0.177246867344 -0.571922704540 9.825622590780
262 2.650286912918 -0.001577971190 0.000288933408 0.000786974765 -0.190562987365 -0.547326574624 9.826578025818
263 2.659836530685 -0.001075290886 -0.009202377337 0.000135173435 -0.178133213874 -0.528186847083 9.826235378981
264 2.670874118805 -0.001491512991 0.003579336879 0.000559547180 -0.162275491934 -0.525240106210 9.816354753971
265 2.681029558182 -0.001804699305 0.000718072819 -0.000611836488 -0.165564623829 -0.546421827637 9.812811341286
266 2.690612792969 -0.001598210564 0.002935924182 0.002454952867 -0.170705678556 -0.528946071491 9.813923481703
267 2.699535369873 -0.005751554625 0.000181614127 -0.002453696968 -0.169830715824 -0.520800132640 9.822619460821
268 2.711427450180 -0.003746220072 -0.002873281119 0.000280759629 -0.188154500965 -0.513428182416 9.817842285633
269 2.723599433899 -0.004936688709 0.008259692692 0.002471711277 -0.184989001136 -0.537092119977 9.837918115854
270 2.730659961700 0.000195436411 -0.001236936507 -0.000242637447 -0.161891329866 -0.538355337828 9.828121690750
271 2.739902973175 -0.000367223192 -0.001192474331 -0.000568265131 -0.169739243444 -0.534238313287 9.802063574195
272 2.750286102295 0.001255758216 -0.002631198996 0.000371038645 -0.174664444551 -0.527096816450 9.817507824898
273 2.760682582855 -0.002060947027 0.004191227528 0.001835478711 -0.167341757119 -0.536274825409 9.830779834986
274 2.770502328873 0.000742928382 -0.003183904010 -0.000071190121 -0.171199914459 -0.533501856476 9.807173455954
275 2.780150651932 0.001652481053 -0.000635673731 -0.001490151372 -0.177589185275 -0.520639261119 9.824538516998
276 2.790729999542 0.002409090841 -0.004061047064 -0.004669388479 -0.159585754462 -0.534412450679 9.818980153799
277 2.799938440323 -0.003285753017 -0.000361131666 -0.000710518180 -0.169433470611 -0.549983001240 9.829093497992
278 2.810079813004 -0.002437367422 0.004873051122 0.003137349926 -0.157547817081 -0.540278560147 9.817701952457
279 2.823800086975 -0.003396848186 -0.003163039808 -0.003842292568 -0.163325176779 -0.543784550652 9.805946125388
280 2.830036878586 -0.000865382233 0.002414451753 0.001953100576 -0.169489238430 -0.547222238369 9.795771385431
281 2.840929269791 -0.000211307675 -0.003010890866 -0.002398532343 -0.171139889136 -0.557977862656 9.782841437459
282 2.849627971649 -0.001517689732 0.001607539950 -0.000333731503 -0.160309584942 -0.546469336264 9.794299641252
283 2.859937191010 -0.003944817248 0.002222819107 -0.002301769870 -0.174441811815 -0.551654537469 9.809608236551
284 2.870080709457 0.000003943424 0.000798959185 -0.001589689749 -0.175085517168 -0.542445720993 9.810804576874
285 2.881530284882 0.000234211965 0.002212365420 0.003942711946 -0.176586077157 -0.541134409793 9.786847364902
286 2.891151666641 -0.002981504288 0.001139111370 -0.000727444012 -0.171947462708 -0.551315033510 9.783163619041
287 2.899419307709 -0.003990058217 0.003479291227 -0.001232438002 -0.168885568231 -0.533903633282 9.801757180095
288 2.909530639648 -0.002711486541 0.000546954966 -0.000868657089 -0.184378186371 -0.540326799676 9.821892067194
289 2.922158479691 -0.000921813225 -0.002878138527 -0.001447886173 -0.177430835366 -0.536297702640 9.827183797359
290 2.930488586426 0.000665595477 -0.001506737872 -0.001327679040 -0.167303494401 -0.552199680693 9.814098898172
291 2.940799951553 0.000109159485 -0.002843330180 0.000199110205 -0.164906738978 -0.574228992574 9.816959356070
292 2.949409723282 0.001615885085 -0.005399295915 -0.000981277529 -0.174138999134 -0.561370563358 9.841053392887
293 2.960135221481 -0.003016117840 -0.000881182333 -0.001099702308 -0.156905555259 -0.517161483429 9.831739947796
294 2.971665859222 -0.002977181332 -0.000696436911 -0.004257430748 -0.156379726119 -0.539115622044 9.819007050991
295 2.980217695236 0.000351092894 0.002247388329 0.002085909220 -0.158679965939 -0.553263947032 9.836397839785
296 2.990671873093 -0.004180782943 -0.000630300140 0.000018105310 -0.154062620737 -0.530945344158 9.809378440976
297 2.999972105026 -0.000847288277 -0.001159347233 0.001460515643 -0.165949991886 -0.550518496558 9.797875798345
298 3.010277032852 -0.002100614083 -0.001961866511 0.000635738684 -0.171513416581 -0.561543056220 9.808831726313
299 3.022066116333 0.000122818475 -0.002519322303 -0.002347800425 -0.172227727063 -0.567477103025 9.820914412737
300 3.030316829681 -0.000244275200 0.002218673262 -0.001245835210 -0.170573915206 -0.553557659984 9.810914504528
301 3.041027784348 -0.000032758777 0.004294240367 0.001336866426 -0.164788552132 -0.568496930525 9.803313124180
302 3.050182580948 -0.000080603145 0.006024476102 0.002177487502 -0.161734167673 -0.565433135703 9.807992066145
303 3.060337781906 -0.003238142511 0.001079927361 -0.002579379707 -0.178043495659 -0.550915887952 9.833951364756
304 3.070836544037 0.002627787341 -0.000866342427 0.001017529159 -0.191451691054 -0.557872174233 9.812666330338
305 3.081194877625 0.002205761092 -0.002035041933 0.002420671950 -0.177778854333 -0.558836855181 9.827590763569
306 3.090965509415 -0.000800080301 -0.002397334701 0.003270537889 -0.168107194193 -0.542926179394 9.809790669680
307 3.100011825562 0.001312801748 0.002852787002 -0.000229449566 -0.183072941657 -0.551106105186 9.797112151980
308 3.109895229340 -0.001707714858 -0.004616224605 -0.000505463554 -0.176644878220 -0.531416045018 9.805937354565
309 3.121652126312 -0.001253002339 -0.005876846992 0.001115651236 -0.175054325927 -0.529320658743 9.790697171688
310 3.131216526031 0.002739715788 -0.004403227374 0.001457532850 -0.179460257739 -0.549401386008 9.803661033511
311 3.141142129898 -0.001081809064 0.003894754500 -0.000646587685 -0.176531332601 -0.542243114971 9.806914424300
312 3.150466918945 -0.000616414512 -0.002811972238 -0.004025065521 -0.168824391738 -0.555403772146 9.843958289623
313 3.159602642059 -0.002060211666 0.008175024455 0.000840384279 -0.184346099775 -0.552916256972 9.826324256659
314 3.170873880386 -0.001445034979 -0.002800957050 -0.000932663461 -0.172544792332 -0.537061531730 9.828716937304
315 3.181371450424 -0.003684187143 0.000091888924 -0.004894508294 -0.164592158776 -0.513390431330 9.831790233850
316 3.191035985947 -0.003132786662 0.002030422493 0.000411799411 -0.166574730333 -0.521109121442 9.830500338078
317 3.199600696564 -0.001785399579 0.006339999313 0.000187603704 -0.176864313260 -0.525152946152 9.826240056753
318 3.210069417953 -0.000738800548 -0.011790491379 -0.001532599273 -0.163094394486 -0.539686858468 9.819587094784
319 3.223490238190 0.000462643551 -0.002284667643 -0.000834576689 -0.156020780168 -0.528200186044 9.812649958134
320 3.231436014175 0.002307203603 0.003682763237 0.002566648808 -0.158911515679 -0.538643495925 9.830657043457
321 3.239092588425 0.000192535477 -0.002936368649 0.000346333924 -0.186750401761 -0.539091758095 9.826787356138
322 3.249013662338 0.000847773836 -0.000762148590 0.001492053296 -0.172025102768 -0.555426430106 9.821240687370
323 3.259736299515 -0.002872879044 0.002654104002 0.001488939556 -0.171270245500 -0.551357352734 9.804884271026
324 3.268871068954 -0.002197010892 -0.001650960529 -0.001175180428 -0.175374040715 -0.558429194614 9.807371091843
325 3.281292200089 -0.002060400741 0.001799964392 0.000878082572 -0.173551463597 -0.554431234002 9.833031013012
326 3.290534496307 -0.001944692763 0.006370085231 -0.001249772085 -0.176995510161 -0.556363884956 9.782958966494
327 3.298766374588 -0.000256905352 0.002824813928 -0.003576929111 -0.164185795560 -0.552924589254 9.807493883371
328 3.309040307999 -0.002619740641 -0.000471875377 0.000468673017 -0.187456379961 -0.537409514152 9.802661744356
329 3.321928262711 -0.000260060996 0.001472631595 0.000107147428 -0.174299888927 -0.536739605963 9.804644535184
330 3.328565835953 -0.001762741774 -0.000435456162 -0.002538672873 -0.176025731172 -0.540485186130 9.838736726046
331 3.340821743011 0.000289600011 0.002388221437 0.002088206847 -0.167850135975 -0.526387403011 9.833779456615
332 3.349392652512 -0.004711001411 0.004056724369 0.002506086861 -0.180608175807 -0.527341047339 9.826842319965
333 3.359566211700 -0.000006168469 -0.003387938820 -0.004893303630 -0.178954510130 -0.541761487126 9.804538115859
334 3.369017362595 -0.003128285555 0.003587012713 0.005463335576 -0.182654134836 -0.532344327047 9.797742481828
335 3.380472421646 -0.001488013821 -0.005176329515 -0.004801639394 -0.161315342579 -0.545268354714 9.823581912518
336 3.390242338181 -0.000728146408 -0.002847248459 -0.001405973896 -0.171037288774 -0.545059060939 9.814997030497
337 3.398673772812 -0.000047055077 -0.006425440491 0.001856464109 -0.163065469041 -0.534624668062 9.801975281239
338 3.409045934677 -0.000358767395 -0.000715831889 0.000555772006 -0.174140570574 -0.540440674201 9.814424003363
339 3.422076940536 0.000410820621 -0.005462143916 -0.001572704294 -0.186785302330 -0.527653581016 9.805907533765
340 3.429351329803 -0.002232277750 0.002505973728 0.000826924002 -0.177645227183 -0.547702331319 9.818845667839
341 3.440512657166 0.002949902396 -0.002394520437 0.002365136979 -0.182749663722 -0.556578441225 9.806162472367
342 3.448873996735 -0.002060257700 0.002370954842 -0.001689439436 -0.170212904457 -0.538459820263 9.812687380314
343 3.458875894547 -0.001365766925 -0.001194348946 0.000432631592 -0.179340353273 -0.538407524228 9.790350431800
344 3.470286130905 0.000105962984 -0.000341403435 -0.001204864792 -0.166366569456 -0.568576854654 9.784344171882
345 3.480433225632 0.001978803461 -0.003625148191 0.001031044311 -0.178523022160 -0.554085590467 9.793722521067
346 3.490248680115 -0.002544151339 -0.000990762374 0.002582826732 -0.170014756937 -0.568318992443 9.810935554504
347 3.498686790466 -0.000353435351 0.003245752546 0.000164408358 -0.174492262322 -0.564714330174 9.817869182825
348 3.509154796600 -0.000415123258 0.003796713762 0.000350403112 -0.177179514728 -0.556456819139 9.808813599944
349 3.520873069763 0.001410038207 -0.000282509572 0.001331145831 -0.170091428552 -0.542970910594 9.816407378912
350 3.529281139374 -0.003009188679 -0.001395391991 -0.001205765429 -0.173028649427 -0.540715895332 9.808219522834
351 3.538775205612 -0.001388743191 -0.001124456832 0.001565954976 -0.178491556831 -0.542908126116 9.810184772015
352 3.549458265305 0.002419168981 -0.000371816104 0.000127023600 -0.178899308760 -0.547915133424 9.831618325710
353 3.559783220291 -0.002319539448 0.002555149102 -0.003254805473 -0.157633149885 -0.543817002699 9.842507010698
354 3.569704532623 0.001287251396 -0.002950842045 0.002593425021 -0.155488537364 -0.554257937148 9.841715297699
355 3.579071044922 -0.000735272900 0.001520445090 -0.002136596796 -0.170199053865 -0.540706612878 9.815625021458
356 3.589828968048 0.001962055715 -0.005955408683 -0.003339116628 -0.161666084155 -0.540656399913 9.814982997179
357 3.599239826202 -0.001913970703 0.001839211948 0.000664265327 -0.160863352809 -0.538732775599 9.813854484558
358 3.609045028687 0.000784646320 -0.003473325643 0.001380683748 -0.152786310604 -0.567159087583 9.822102566957
359 3.618933677673 -0.000962261935 -0.003002941954 0.000467457267 -0.154368357025 -0.511400294937 9.800236319304
360 3.629699945450 -0.004011400176 0.002409048189 0.002847724135 -0.166632544678 -0.423307715356 9.820361266136
361 3.640572547913 -0.005526750539 0.002935523147 -0.000447199265 -0.181197392419 -0.404745948538 9.850184404850
362 3.649374723434 -0.006753947133 0.000316327394 0.001122229686 -0.181981723309 -0.465214015581 9.854456380606
363 3.659292459488 -0.010689451119 0.004943146875 -0.001679101741 -0.165340291746 -0.541099765040 9.794156384468
364 3.669122219086 -0.004332324611 -0.004847227822 0.000964228031 -0.167830401622 -0.575486436300 9.810360188484
365 3.681140899658 -0.003965367280 0.000654783667 -0.001016541657 -0.178299256526 -0.619309599996 9.824477705956
366 3.690897941589 -0.002125255605 -0.002389715304 -0.001954991446 -0.169068385083 -0.616154150069 9.821324887276
367 3.698831796646 0.000591141659 -0.005578130823 0.002329412650 -0.151368927257 -0.606628049053 9.797099288106
368 3.709167957306 -0.002524266576 0.002968734378 0.001447364204 -0.154981364496 -0.611565949582 9.822410130501
369 3.721836328506 -0.001686495004 -0.001144640030 -0.002102264515 -0.150199602898 -0.635907140896 9.831404317617
370 3.729916810989 0.000170490245 -0.001321002282 0.003014105124 -0.192263284586 -0.654182686508 9.828231618404
371 3.740133285522 -0.002049475668 0.001688671956 -0.000678828579 -0.196828077938 -0.663509068564 9.814286009073
372 3.748812675476 0.003950950580 0.003082165275 -0.004960250403 -0.202383809891 -0.639659591541 9.828062049150
373 3.759487628937 0.006147051212 -0.001273110375 -0.006793688571 -0.202356602065 -0.612153850570 9.813727015257
374 3.769807100296 0.008551827940 -0.007980012924 -0.000843319803 -0.187955293637 -0.603097354062 9.822928193808
375 3.780107259750 0.009685619360 -0.002495788698 -0.000814040895 -0.203410599232 -0.545450860932 9.809319968820
376 3.789415359497 0.004228049371 -0.004933616191 0.003239435860 -0.193213786036 -0.539659340009 9.804076185822
377 3.799247503281 0.001257422042 -0.002989109901 0.002643874758 -0.187859636843 -0.505682850927 9.812383325100
378 3.809182405472 0.001132897675 0.003624260297 0.001792760203 -0.172992012966 -0.466384920515 9.807999082804
379 3.822278022766 0.005556974297 -0.002902242476 -0.000829179302 -0.145499647502 -0.481785353646 9.793707903028
380 3.829878568649 0.003580809680 -0.001364358232 0.003685754872 -0.157702987567 -0.469068975225 9.796332133412
381 3.841427326202 -0.000044841739 0.000819653234 0.000511089124 -0.153526942693 -0.441783601195 9.800146272182
382 3.849488258362 -0.001008727529 0.003410145527 -0.000869669168 -0.142158996155 -0.447721521780 9.817755746841
383 3.859233140945 -0.001328007384 -0.009301470856 0.000092244072 -0.110370535171 -0.450533338152 9.836887836456
384 3.868699789047 -0.002328229572 0.002956755615 0.002287674362 -0.115754980249 -0.458511535004 9.837845610380
385 3.879441738129 -0.007311051305 0.002511977544 -0.000162102701 -0.114871575600 -0.484322972149 9.824822691679
386 3.891296148300 -0.004893549660 0.001415828892 0.001464223132 -0.118689405425 -0.528431297243 9.821319040060
387 3.898887634277 -0.002191454664 0.001528480606 0.001222656606 -0.135521593262 -0.553546294458 9.828186010122
388 3.908921480179 -0.008846230515 0.001274148072 -0.002695515376 -0.140982445003 -0.563179326430 9.820307471752
389 3.922357320786 -0.005719599813 0.001636797271 -0.001541791340 -0.161085693184 -0.579798209667 9.811740131378
390 3.929785490036 -0.003122618796 0.000467385844 0.000884365188 -0.160235562846 -0.605779508427 9.826870386600
391 3.940200567245 0.000269742101 0.003137136925 -0.001961742846 -0.166804361455 -0.616119066775 9.822847502232
392 3.948896884918 -0.002232119365 0.002250123010 -0.001907690688 -0.175123980884 -0.605065271035 9.808562754393
393 3.958721399307 -0.002377000270 0.005175737585 0.002567861535 -0.170329812225 -0.587982155420 9.812882677317
394 3.970007658005 0.001936257642 -0.003373888565 -0.000246493618 -0.171187087130 -0.584148245752 9.814476628304
395 3.979762792587 -0.001432407330 0.001333793648 -0.001012298804 -0.161181532703 -0.565397175327 9.811716742516
396 3.991214990616 0.002221763986 0.001101303585 0.001592280089 -0.171696014162 -0.553690391779 9.795189002752
397 3.998543977737 -0.002569840180 0.003139507763 -0.001396077807 -0.160664218571 -0.534692788124 9.811615000963
398 4.009289979935 -0.001424773238 0.003166079296 -0.005490855081 -0.159867060352 -0.537853537090 9.809936265349
399 4.021294116974 -0.003184321950 0.002283726434 -0.001355642101 -0.168547836710 -0.528373190537 9.806143761277
400 4.029125213623 -0.000577503231 0.002068104792 -0.001505043878 -0.167814102508 -0.511061814241 9.844588619471
401 4.039911985397 -0.001862445948 0.003835162370 -0.002609485650 -0.121128397845 -0.508810051493 9.851922197342
402 4.049248933792 -0.003488360019 0.005157771131 -0.001652575200 -0.138029975686 -0.494564151093 9.818701826334
403 4.059315204620 -0.001963705366 0.003277363019 0.002598275407 -0.157238535918 -0.477110358551 9.796946675777
404 4.070542573929 -0.002804799908 0.003780806316 -0.001839400242 -0.180499454141 -0.494785943292 9.836218914986
405 4.079285144806 -0.004676343386 0.010007930511 0.000450207447 -0.178119454645 -0.505461168364 9.829340250492
406 4.090780496597 -0.006851041201 0.004843422415 -0.004966070866 -0.189397162199 -0.521376923919 9.809852650166
407 4.098965883255 -0.005765363011 0.009808172623 -0.003539277371 -0.222492877878 -0.550083829165 9.830052441359
408 4.109013795853 -0.005206930900 0.004513304872 0.000981354316 -0.284251717776 -0.592494378649 9.828997603655
409 4.119202136993 -0.003892558693 0.000007114890 -0.001050929139 -0.302549647260 -0.644303450212 9.828271379471
410 4.129419565201 -0.001757585801 -0.000598949350 0.004323209006 -0.308277049810 -0.705381199121 9.815352541208
411 4.139486312866 0.004715208893 -0.005176588549 0.003238387761 -0.320241183937 -0.774380244166 9.798339482546
412 4.150050163269 0.007389387772 -0.005761997129 -0.002034371072 -0.312665385157 -0.755125582293 9.808383829594
413 4.159216642380 0.007380804279 -0.005386530427 -0.000204467882 -0.302947513741 -0.741505589783 9.821458203793
414 4.168910741806 0.011083274388 -0.007572449929 0.003631714808 -0.299423506502 -0.708108340502 9.830513201952
415 4.179944515228 0.008008761020 -0.007460508217 -0.001666508942 -0.313245757855 -0.672243273854 9.816635420322
416 4.191658496857 0.013136232451 -0.015362500924 -0.001546493874 -0.315650754198 -0.654704038873 9.806462434530
417 4.199519872665 0.019105973310 -0.018986099852 0.003860691526 -0.284793608487 -0.667062421516 9.817577991486
418 4.208782434464 0.015158462213 -0.013511961829 0.002839125038 -0.219820828233 -0.683132178113 9.812585638762
419 4.220100641251 0.022638783413 -0.019053852335 0.000255891306 -0.211754649058 -0.728076143414 9.836818839312
420 4.230900049210 0.022086791262 -0.018977055508 -0.001726803144 -0.231110888030 -0.672950786948 9.839821969271
421 4.239043712616 0.022698461108 -0.014697019620 -0.003840145394 -0.238865684699 -0.663584790006 9.812819527388
422 4.249133586884 0.026882052073 -0.020481227617 -0.001873510030 -0.310319957323 -0.711095682979 9.823488357067
423 4.259311914444 0.035472473482 -0.028300636842 -0.004118728689 -0.386419093609 -0.664517274722 9.830333107710
424 4.269543170929 0.030266122548 -0.037777077382 -0.005093839140 -0.512913663983 -0.498464207388 9.830106235743
425 4.279752016068 0.026618322143 -0.041541880024 0.002376159710 -0.486588987485 -0.344580438361 9.834715011120
426 4.290020227432 0.024499392586 -0.037814627953 0.013730640644 -0.355354262106 -0.316185555160 9.849046536684
427 4.299996137619 0.023437182463 -0.046638621074 0.009820785188 -0.233763258141 -0.257711534835 9.824237970114
428 4.309474945068 0.012455378674 -0.037110409099 0.003514424668 -0.090051661776 -0.238309358675 9.791017014384
429 4.319687843323 0.009787481110 -0.040453508504 -0.000186677092 -0.062550603147 -0.215895300005 9.798545304537
430 4.329657077789 0.009802593509 -0.040086595646 -0.003342695510 -0.095919963950 -0.240585021917 9.824906891584
431 4.339481353760 0.002562619477 -0.039991296091 -0.005130866962 -0.195527711995 -0.286679993346 9.812604349852
432 4.349233388901 -0.000694114057 -0.048549501574 -0.008752077368 -0.435989997201 -0.394076168686 9.812652297020
433 4.359490394592 0.002970131237 -0.058325816132 -0.004043902705 -0.549511313662 -0.473990320824 9.829997477531
434 4.369926214218 0.004282197626 -0.058139190958 0.012210310637 -0.464606051333 -0.455165173486 9.838816248178
435 4.377872467041 0.001749870696 -0.059198600601 0.016607867871 -0.247954852525 -0.369830286987 9.817171025276
436 4.390443801880 0.002282462472 -0.058920233688 0.000317707023 -0.061431848067 -0.234169529993 9.797467077971
437 4.398154258728 -0.008610403440 -0.059827539382 -0.001202198120 0.135690742247 -0.078442216096 9.805460806489
438 4.408667325974 -0.013312524353 -0.071557049573 0.019221583630 0.239779933412 -0.023399826139 9.811151901484
439 4.419085979462 -0.017387118168 -0.062381173811 0.033348656608 0.226717546005 -0.095062341867 9.808495511413
440 4.427970886230 -0.027633633583 -0.067240273506 0.023478786032 0.105062341439 -0.272247292679 9.831563361883
441 4.438842773438 -0.032132153751 -0.071726127013 0.044320688885 0.151928862110 -0.543806843162 9.906650966406
442 4.448371648788 -0.028402968807 -0.015741278373 0.057846272366 0.624373288751 -0.679978043810 9.821414934397
443 4.458025217056 -0.022374714346 -0.017632306879 -0.010617768393 0.454641043693 -0.788938276246 9.833932653666
444 4.468347549438 -0.022273453887 -0.011325533622 -0.051380633227 0.211170493942 -0.801174086630 9.816205065250
445 4.478387355804 -0.008573900968 -0.017747652964 0.016177145257 0.154253495783 -0.884578843787 9.808545797467
446 4.492610216141 -0.000722565863 -0.014356620819 0.037613517679 0.082172648320 -0.819909954295 9.793069387078
447 4.497634172440 -0.000984861223 -0.016210377554 -0.009595504646 0.194525170326 -0.772823057547 9.794187374711
448 4.508433103561 -0.001295647766 -0.018307861382 -0.015437814288 0.393135497868 -0.733866348714 9.793448286653
449 4.518478155136 0.009636775321 -0.017025934228 0.024960086165 0.454119837508 -0.726571362466 9.825339585543
450 4.528536319733 0.008802293559 -0.000135674834 0.039970773106 0.415886648521 -0.702771367505 9.818197796345
451 4.537925958633 0.008013220774 0.001360171556 0.007719293614 0.187068161387 -0.722457846254 9.790612971783
452 4.550244808197 0.010218660414 -0.002192843721 -0.004883246556 0.106975486446 -0.811411245614 9.776998899579
453 4.558189153671 0.017846102539 0.009336792070 0.013562258123 0.172007396668 -0.839766367748 9.835899657011
454 4.568724155426 0.019019568297 0.015101990714 0.009024632140 0.052714197705 -0.819765454978 9.811057176590
455 4.577901363373 0.028027273760 0.006922145522 -0.002364078477 -0.036435218139 -0.835268762559 9.822824113369
456 4.588550567627 0.030186254763 0.014876445937 0.004114587785 -0.081850092150 -0.821845675036 9.865753201246
457 4.599796056747 0.031445382762 0.006539848747 0.006646891698 -0.191770181581 -0.713515406996 9.849503788948
458 4.608450651169 0.029449801256 0.009976532258 0.012728487924 -0.201453061067 -0.564208509475 9.862643651962
459 4.619546651840 0.025942214202 -0.000448792188 0.014836668089 -0.193368974794 -0.384413425550 9.885482876301
460 4.628207445145 0.018489455679 -0.004651301870 0.020823379318 -0.217297955677 -0.224523889963 9.834743077755
461 4.637950897217 0.006944461979 -0.015343007833 0.036423842008 -0.196597789004 -0.095769261103 9.785349308252
462 4.649092197418 0.001649122844 -0.018421459767 0.056508824544 -0.151664485736 -0.011596298581 9.794940496087
463 4.658365964890 -0.018439182272 -0.021652465058 0.051030032231 -0.167065110728 -0.014130786768 9.948098369837
464 4.667981624603 -0.027084660375 -0.026333977682 0.045917840686 -0.178128536101 -0.144679356236 10.150174634457
465 4.678686857224 -0.032027364603 -0.031039342242 0.058784558114 -0.158014370073 -0.297534088399 10.240705904961
466 4.691422700882 -0.041190105572 -0.032998833754 0.065494608862 -0.199765572902 -0.374945102334 10.261950008869
467 4.698117256165 -0.043475185173 -0.032058384188 0.056158801953 -0.287887662649 -0.391749853939 10.281268039942
468 4.707610607147 -0.041878532714 -0.042396941988 0.063344938520 -0.329795534313 -0.328713653237 10.246004651785
469 4.720600128174 -0.047096289468 -0.052641881352 0.084468595493 -0.398198090270 -0.295657351445 10.176454360485
470 4.728465557098 -0.049001252757 -0.066195640246 0.100093461477 -0.378288905695 -0.199543141164 10.063446393013
471 4.737830162048 -0.056690177492 -0.066775090004 0.099709134042 -0.342409878820 -0.034253048678 9.999358570576
472 4.747758626938 -0.062767536067 -0.087588264006 0.110156831512 -0.202290108260 0.096741059208 10.025667532682
473 4.758649349213 -0.070691913371 -0.089378807075 0.125527290710 -0.016723490154 0.096074522305 9.984574470520
474 4.767897367477 -0.086485107781 -0.071463531007 0.104407782443 0.306550330482 0.026052100318 9.824123364687
475 4.777750015259 -0.090576222558 -0.062128731106 0.083684411065 0.641121468544 -0.079090060182 9.610874240398
476 4.790365219116 -0.095327010659 -0.046962086955 0.087374328946 0.928363890946 -0.255559796020 9.453744353056
477 4.797698497772 -0.095345752655 -0.015723108540 0.090546062258 1.206730093807 -0.455494042821 9.431708536148
478 4.808619022369 -0.092868255505 0.010707939283 0.054027116271 1.205972367749 -0.616797928512 9.605611746311
479 4.818398714066 -0.090386230981 0.032470853746 0.026157455875 0.987462576628 -0.761370627880 9.937490351200
480 4.829207658768 -0.087478658282 0.049171566070 0.015775361633 0.728126868010 -0.886967650652 10.285889679193
481 4.837987899780 -0.076616448111 0.069916159513 0.015027384753 0.501997899078 -0.938037305251 10.598125147820
482 4.848397493362 -0.066904785949 0.079046099908 0.007723177564 0.551999925189 -0.955034503341 10.622401617765
483 4.859583854675 -0.058192882782 0.103908739344 -0.002026090305 0.759593074322 -0.879064773247 10.389386565685
484 4.869188785553 -0.059032631569 0.128202227966 -0.014255874267 0.936232562140 -0.736474864706 10.092367891073
485 4.878256320953 -0.061881602241 0.149397611357 -0.020519747745 0.857715638727 -0.595520641655 9.937765170336
486 4.889611959457 -0.067603116721 0.159789665405 -0.021653777913 0.526318478957 -0.433704978414 9.889502252340
487 4.898509740829 -0.072472702613 0.159123392434 -0.008744831697 0.168983271550 -0.295243514758 9.923893235922
488 4.908234834671 -0.083558543414 0.146499409656 0.015675892567 0.001734181808 -0.141522700321 9.937422523499
489 4.917817592621 -0.097018825354 0.150380700629 0.054562216074 0.079763769060 -0.139744260544 9.876092247963
490 4.928941726685 -0.108259087886 0.155931710381 0.083850509093 0.293218039256 -0.231746443827 9.563357427120
491 4.939060211182 -0.124648772123 0.163307934231 0.080745804217 0.195945404191 -0.282373153567 9.586807685494
492 4.947969913483 -0.118417149942 0.160649533542 0.087604259617 -0.110934444303 -0.490320607424 9.964209787846
493 4.959155559540 -0.134126920831 0.168949990803 0.119093875820 -0.342010258175 -0.582076284885 10.102109352350
494 4.968082666397 -0.121270627182 0.169457522728 0.143407462986 -0.396936334223 -0.755441258848 9.823685992956
495 4.978328227997 -0.143411074898 0.131598765363 0.108718158601 -0.833370171636 -0.542819431163 9.951518990994
496 4.990726470947 -0.130293158961 0.133969661169 0.123524593570 -0.723997710496 -0.568763307743 9.638637989759
497 4.998252630234 -0.135808332552 0.102885644399 0.165814850989 -0.732453149781 -0.611207807623 9.573568419814
498 5.007878780365 -0.127486852963 0.107490066832 0.158940133662 -0.761490788162 -0.602079682723 9.568536890745
499 5.020235538483 -0.136378340572 0.082121027314 0.128336359738 -0.724832839072 -0.744800934345 9.603247132301
500 5.029416084290 -0.125023195928 0.057211932362 0.142336639201 -0.670266695693 -0.940430570617 9.499189497828
501 5.038755893707 -0.117155876850 0.064670551919 0.143162052691 -0.541143801883 -1.026776331067 9.544963840842
502 5.047955989838 -0.115283882663 0.053467494580 0.134903257256 -0.506343367025 -0.954108596742 9.534578016400
503 5.058439970016 -0.111935723251 0.057561555479 0.132542248436 -0.356414143033 -0.905346107259 9.546534987688
504 5.069396018982 -0.112189364378 0.061986984357 0.143401637321 -0.326799092107 -0.914392042235 9.710196214914
505 5.079032182693 -0.109641201913 0.077030894233 0.135946816929 -0.405453023091 -1.009417701960 9.832710585594
506 5.087757587433 -0.094003161604 0.067003809768 0.148058806988 -0.517496346161 -1.126492554098 9.809050996900
507 5.098333358765 -0.084717368028 0.070620124535 0.152065299821 -0.596709197871 -1.200485267490 9.733869836926
508 5.108497619629 -0.070699170485 0.053667019441 0.158921391666 -0.616870214716 -1.179601425156 9.674315360785
509 5.119418859482 -0.070325420793 0.058662069348 0.160774985074 -0.678027997389 -1.162426544800 9.745818037391
510 5.128904819489 -0.065726274749 0.043921597550 0.175768082668 -0.750414773002 -1.172169979513 9.840640579462
511 5.138999938965 -0.058890427089 0.040285433911 0.187327832985 -0.746789499298 -1.206571268812 9.907535065413
512 5.148865461349 -0.051673543496 0.039956246395 0.196709367202 -0.647304387465 -1.193084592819 9.944271951914
513 5.158570766449 -0.049513008289 0.034996046447 0.207576728925 -0.538992282338 -1.188395710588 9.994362709522
514 5.168557405472 -0.043396659371 0.035058971950 0.207710153296 -0.512889617309 -1.213110502437 10.086603705883
515 5.178164482117 -0.038954152972 0.036852923033 0.209379788852 -0.571378292218 -1.321728453487 10.083159695864
516 5.190296173096 -0.028096551318 0.025767993532 0.215128138841 -0.661614059061 -1.317097312510 10.114837571383
517 5.198786735535 -0.019719334680 0.017976535015 0.223319489722 -0.740276943594 -1.273013253361 10.133874936104
518 5.208149671555 -0.015563458275 0.017923927180 0.224858297489 -0.726394995824 -1.140582224205 10.089133211374
519 5.217966318130 -0.013216364472 0.011565572861 0.237403300896 -0.618131093681 -1.077894590646 10.061515642405
520 5.229554414749 -0.014500325408 0.007336837674 0.243073770068 -0.580889007747 -1.120772515386 10.100742273331
521 5.238230705261 -0.007333446825 0.011005487197 0.238895553279 -0.623762547076 -1.185463551208 10.179724123478
522 5.248358964920 0.007397921331 -0.002400746356 0.235474922596 -0.685862900913 -1.253048227876 10.222081353664
523 5.257948160172 0.010846493359 -0.003495017922 0.233717735619 -0.709338009953 -1.128134086803 10.130646103621
524 5.268325805664 0.013107234164 -0.014558990893 0.229836561160 -0.665378788859 -0.942056827471 10.096655069590
525 5.279796838760 0.006979727018 -0.018523908245 0.232352516021 -0.578024602979 -0.833580671400 10.175573769808
526 5.288166522980 0.009312271222 -0.015796402687 0.230428748318 -0.516361109242 -0.845522586107 10.197638822794
527 5.298261642456 0.015926383673 -0.022773543525 0.230970119033 -0.488404511400 -0.916858105436 10.210009192228
528 5.308413982391 0.011259912708 -0.023866230198 0.220353993269 -0.438640028425 -0.924666477218 10.173626646996
529 5.319640636444 0.011959021623 -0.027275142972 0.215959844049 -0.407270264626 -0.895602380186 10.119662693739
530 5.329130411148 0.013485390555 -0.032541404628 0.204281250169 -0.400639448985 -0.842729590461 10.113907864094
531 5.337924718857 0.018135823257 -0.038518422367 0.195097505597 -0.458931949809 -0.781980747432 10.089763541222
532 5.348076105118 0.018946025520 -0.043618113699 0.193953811067 -0.448412333764 -0.727196941450 10.056699875593
533 5.358571290970 0.014677547335 -0.049146494905 0.185301533580 -0.415958203822 -0.723485055864 10.118275734186
534 5.368062019348 0.007957371893 -0.045701508781 0.175194770665 -0.432683725655 -0.761625566483 10.173163547516
535 5.378601074219 0.007917032285 -0.055803082694 0.161322530994 -0.510067860670 -0.853729445636 10.092710537910
536 5.387738704681 0.005770739268 -0.058023143713 0.164306902601 -0.509228200503 -0.943550279438 9.995153253078
537 5.398303031921 0.012632665099 -0.065258269960 0.157436030212 -0.517043223493 -0.936446716413 9.962763186693
538 5.408653974533 0.008652351868 -0.077474385456 0.143260606296 -0.493267640658 -0.872718863189 9.957450406551
539 5.418459653854 0.010550574550 -0.078957566446 0.130615193394 -0.446076809652 -0.845021552816 10.008940987587
540 5.428109169006 0.013272199308 -0.085871066057 0.124441628125 -0.434667649381 -0.867485166639 10.056339687109
541 5.438289165497 0.021127298014 -0.083309779201 0.106381351258 -0.393158009648 -0.886951716989 10.097182488441
542 5.448539495468 0.024179813255 -0.086110717266 0.088810388630 -0.303799087610 -0.874717733860 10.120142165422
543 5.459313392639 0.021830663825 -0.078544002496 0.067462372818 -0.239541604556 -0.845370777771 10.191293424368
544 5.468261241913 0.024463038356 -0.075032483118 0.048655341421 -0.220013822895 -0.848401682004 10.161699496508
545 5.478140830994 0.021979703058 -0.070912897485 0.032916329856 -0.258700079732 -0.846943898052 10.135781128407
546 5.492799520493 0.020445707706 -0.069982405645 0.024032613268 -0.308209916465 -0.869345750660 10.114679696560
547 5.497668027878 0.020771947020 -0.072983521877 0.014212871498 -0.324472740814 -0.854559530988 10.068352206945
548 5.508087873459 0.022263774961 -0.067790802999 0.008944453306 -0.293530536387 -0.850246040002 10.025996146202
549 5.519598245621 0.024304370132 -0.069184971991 -0.002130564112 -0.245468543340 -0.858358832449 10.020560574532
550 5.527938365936 0.027952815521 -0.066364330695 -0.016999197547 -0.257473808974 -0.876038181335 10.022795380354
551 5.537942409515 0.028423968249 -0.061477509157 -0.021310250939 -0.272042457405 -0.902864695117 9.976898245811
552 5.547960758209 0.031084206103 -0.064948015854 -0.029345557225 -0.266136312783 -0.903345847875 9.908695152998
553 5.558935403824 0.032144506241 -0.070260065155 -0.032514427638 -0.272194978371 -0.928552317470 9.929703029394
554 5.567399263382 0.032549344177 -0.065479649387 -0.043663258441 -0.269711245615 -0.941851882562 9.863171070814
555 5.577613830566 0.040316189261 -0.064385731002 -0.050317790603 -0.245399363469 -0.913024963215 9.787116921544
556 5.587662935257 0.043141341285 -0.060967825898 -0.053915280150 -0.212004690617 -0.895947877541 9.802622568011
557 5.597241401672 0.046008654479 -0.061845874270 -0.056257326430 -0.153761690129 -0.876512390524 9.821267584562
558 5.607670307159 0.047053716341 -0.055405268845 -0.062134323745 -0.161562314350 -0.926884326115 9.834479953051
559 5.618155717850 0.051334464833 -0.054395427288 -0.062114100365 -0.205432712585 -0.989804021046 9.742199195623
560 5.627476930618 0.056789738105 -0.064993031599 -0.055043790500 -0.236014381349 -0.991238123775 9.628272045851
561 5.637033224106 0.063086266515 -0.064840424146 -0.052735541399 -0.230189714022 -0.954185560718 9.568708798885
562 5.647215604782 0.059729268737 -0.068734535743 -0.047371219239 -0.231984388959 -0.900717085898 9.517474910617
563 5.658350706100 0.062574494339 -0.080043503670 -0.042374292635 -0.232543675136 -0.895468990579 9.531995885968
564 5.667338609695 0.065505873201 -0.084291387089 -0.030733340872 -0.246981693115 -0.900962668955 9.504821535945
565 5.677096843719 0.068946831294 -0.088029633022 -0.018498104711 -0.198314805608 -0.858608435467 9.463511542082
566 5.687939167023 0.071372609023 -0.090567259356 -0.016879463489 -0.089633722901 -0.794272910357 9.526410625577
567 5.698295116425 0.061508784655 -0.086805860567 -0.015117087509 -0.024737118620 -0.759174998403 9.692017221451
568 5.708597898483 0.061627499222 -0.084733954528 -0.014861769423 -0.040329831499 -0.767959270477 9.764490535855
569 5.717381715775 0.060473905223 -0.083493462415 -0.006773580144 -0.067437897851 -0.754056638181 9.731913943291
570 5.727454185486 0.061978741042 -0.081614061311 -0.006996998554 -0.062611021330 -0.697061415240 9.765179922581
571 5.737630605698 0.059825346435 -0.073989181439 -0.004910666192 0.069314228240 -0.596034758091 9.847512227297
572 5.747578144073 0.060121943518 -0.076902396711 -0.005698700240 0.188575756308 -0.584219325967 9.964447184801
573 5.758921384811 0.056865650680 -0.067794156917 -0.015551051689 0.265971110668 -0.600709387735 10.026869720221
574 5.767226457596 0.060661616468 -0.060230263434 -0.021646044343 0.233929867242 -0.627092170939 10.035462788343
575 5.777398347855 0.053667468849 -0.055047065356 -0.029868618707 0.186333166379 -0.633480254039 10.030465757847
576 5.788079023361 0.058767401531 -0.048882479934 -0.031194991524 0.177546866052 -0.626065765321 10.041745036840
577 5.797339200974 0.053202077287 -0.044661777402 -0.029888088912 0.113726434959 -0.694370088056 10.059757969379
578 5.806683301926 0.048294029524 -0.034821330595 -0.032199049028 0.062619184591 -0.741234571338 10.131106864214
579 5.817891836166 0.061710244469 -0.036526373710 -0.029919366490 0.069988690862 -0.759398069680 10.119587849379
580 5.827147006989 0.055323909274 -0.025439544627 -0.031354323459 0.107176722027 -0.722216940969 10.087127616405
581 5.837274551392 0.058048115010 -0.026479007609 -0.045528012159 0.118741600960 -0.688839206770 10.023072538376
582 5.846930027008 0.053308974077 -0.013309592795 -0.046606979391 0.061800766261 -0.705785460994 10.031105443239
583 5.859457015991 0.054731738761 -0.016011821210 -0.040002556269 -0.079645901984 -0.808612402752 10.046146820784
584 5.867887735367 0.058503786033 -0.018280351761 -0.046473966978 -0.170347609688 -0.847996616140 10.008427602053
585 5.877340793610 0.062795765575 -0.017871388005 -0.039834406775 -0.150220552376 -0.846963120773 9.919028352499
586 5.886968851089 0.071699653527 -0.020485576059 -0.036242060458 -0.075077239419 -0.791811159477 9.855491337776
587 5.897421836853 0.077823550842 -0.022588572423 -0.038717963873 -0.032170350405 -0.732457315922 9.823694179058
588 5.907335996628 0.082881018588 -0.024623691469 -0.039462729355 -0.016938644849 -0.704490448907 9.822713016272
589 5.917705535889 0.086098832909 -0.029910245164 -0.036307611672 -0.030748885428 -0.681858800724 9.854238864183
590 5.927117347717 0.086069646328 -0.031553080580 -0.024471907931 -0.025765314947 -0.675518372431 9.936381719112
591 5.936861515045 0.082851615625 -0.030825442553 -0.031994597319 -0.062752852854 -0.700820005462 10.040810651779
592 5.948036909103 0.091111509614 -0.029238518955 -0.032073803475 -0.099582933923 -0.739451755285 10.060348538160
593 5.959351539612 0.094041702538 -0.030587757506 -0.025841138916 -0.098931526691 -0.761350162625 10.046524550915
594 5.967471361160 0.096678390142 -0.025151765104 -0.023767379068 -0.037520861076 -0.746073361561 9.966842204332
595 5.976986885071 0.100006559201 -0.025829185900 -0.019282301622 0.055415985924 -0.678858155832 9.970731772184
596 5.987507581711 0.103453671693 -0.027492596317 -0.011077625573 0.071544173565 -0.631102703065 10.058130104542
597 5.997858285904 0.103549886709 -0.021412235444 -0.017507410866 0.047243149881 -0.635594680309 10.203564391136
598 6.007743120193 0.107070319354 -0.023181922633 -0.019530872340 0.064505450679 -0.626947452351 10.242545439005
599 6.016864776611 0.108794399910 -0.011254306546 -0.013457319173 0.084632343538 -0.549996194020 10.185985321999
600 6.027673959732 0.107003016280 -0.016782598286 -0.006427638639 0.071850311849 -0.507570039779 10.067137155533
601 6.037415504456 0.105177136392 -0.014741233296 0.002956762117 0.022990516475 -0.566769261025 9.950123845339
602 6.047580242157 0.100835293321 -0.014130482032 0.015592721838 -0.015822138435 -0.660823369324 9.868157576323
603 6.058750152588 0.100782188224 -0.013405427063 0.022387526647 -0.078254812835 -0.726455953047 9.901312458515
604 6.067589759827 0.101725604718 -0.017851202076 0.026139250672 -0.121753026657 -0.772252880931 9.896037100554
605 6.077634096146 0.103295429990 -0.025501735680 0.036850692636 -0.116881866613 -0.700337244719 9.861846091747
606 6.087797880173 0.107423313035 -0.026073089844 0.043739666197 -0.105266710762 -0.611483686566 9.906309489012
607 6.097599983215 0.109219706736 -0.030631452073 0.051167684370 -0.038051374841 -0.486586904414 9.866839613914
608 6.107682943344 0.107659660259 -0.031670290877 0.060031421008 0.036551520629 -0.452500560768 9.784512571692
609 6.117497444153 0.107913426221 -0.032320886567 0.064098542368 0.042372058360 -0.475466450416 9.760951216221
610 6.128287315369 0.114442232213 -0.035738415084 0.069591915489 -0.019382277355 -0.541321447603 9.726565495133
611 6.137244939804 0.114836180317 -0.038840877079 0.069256186583 -0.097665915135 -0.622029139996 9.655269225240
612 6.147623777390 0.115120364572 -0.045194060080 0.074833453439 -0.120366871096 -0.578956941515 9.546551944613
613 6.161462545395 0.117827908906 -0.049552622810 0.079190143633 -0.138144142572 -0.535503650755 9.462688838840
614 6.167330026627 0.117710480147 -0.056480441073 0.081723766903 -0.091619483018 -0.449108810239 9.421144371629
615 6.177360534668 0.118120723468 -0.055480831880 0.078546133025 0.036297724061 -0.351056741327 9.433678463101
616 6.187348365784 0.112749768373 -0.041939519103 0.076355200330 0.068496645880 -0.343363596238 9.558105458021
617 6.198329448700 0.121514214875 -0.036617666040 0.059883503215 0.022476315529 -0.391041719578 9.572334657311
618 6.207627296448 0.126753526589 -0.044501550812 0.055065362105 -0.017142143942 -0.392697906867 9.535479072332
619 6.217566967010 0.128980636663 -0.043751929222 0.052858084260 0.006194130843 -0.332509519458 9.548213138580
620 6.226978063583 0.126971589548 -0.041998441542 0.049007615215 0.021857017733 -0.207456251197 9.563469108939
621 6.237538576126 0.119961017716 -0.042045700168 0.047695700450 0.063683291045 -0.155973618720 9.544044658542
622 6.247523069382 0.117658581795 -0.041790119927 0.048598815827 0.117658468215 -0.164643906634 9.532553125620
623 6.259377241135 0.119660380118 -0.044961986397 0.054678167611 0.153988434188 -0.208682631589 9.622049438953
624 6.266881465912 0.115394803323 -0.038094617730 0.041196692735 0.128118433524 -0.247189250998 9.699138545394
625 6.277332544327 0.111964277332 -0.036677840997 0.033882888803 0.178833381403 -0.217111612223 9.742460566163
626 6.287774562836 0.108731124867 -0.032228214803 0.021774835230 0.238816056456 -0.142451567072 9.829727336168
627 6.297688484192 0.104187755402 -0.017889152122 0.012084921523 0.197702127043 -0.051184785361 9.915914125443
628 6.306859254837 0.098675619480 -0.015114139306 -0.000437709283 0.165466865692 -0.026037189919 9.932737734318
629 6.317386865616 0.098089466046 -0.003262459460 -0.008059186830 0.119545154572 -0.057714878144 9.987250156403
630 6.328261613846 0.093464820234 0.006230655224 -0.017035674531 0.078464536015 -0.120284525855 10.004870156050
631 6.337511301041 0.096028137750 0.008235946346 -0.028966676786 0.033831551224 -0.198210853077 9.988881529570
632 6.347545146942 0.092302367063 0.010541075596 -0.032046674602 -0.009183045330 -0.257156268619 9.971719951630
633 6.358998298645 0.096060769796 0.011412680367 -0.035642865858 -0.050308685163 -0.230866748504 9.920281995535
634 6.367979526520 0.095030326191 0.007053811790 -0.038156756768 -0.066501004882 -0.184804466665 9.883056281805
635 6.377358198166 0.088608587598 0.001674641206 -0.038469407719 -0.084609594215 -0.162188185696 9.967309981585
636 6.387051105499 0.090384491604 0.006984970636 -0.034054204963 -0.086013419330 -0.167906634696 10.000549063683
637 6.397464513779 0.090843271036 -0.001108103749 -0.037366521972 -0.087933891630 -0.183646425605 10.022559152842
638 6.408063650131 0.086627761669 0.002918675792 -0.040773349990 -0.106759961732 -0.239940201938 10.035487346649
639 6.418406486511 0.085181623585 0.006659351859 -0.039706641622 -0.160187067501 -0.257575422619 10.057078775167
640 6.427068948746 0.085178777332 0.005502459597 -0.040956629569 -0.168648609817 -0.261818728745 10.007409017086
641 6.436927318573 0.084265246499 -0.006328248635 -0.039654992941 -0.153711806070 -0.198580726013 10.055266138315
642 6.447660923004 0.082351482295 -0.009520851872 -0.037624569798 -0.155741758347 -0.148432035288 10.051250270605
643 6.459301710129 0.082784820216 -0.009161337608 -0.037680109190 -0.156679012198 -0.146916309083 10.060983545780
644 6.467409133911 0.080916412974 -0.003972704497 -0.031184807014 -0.155564039536 -0.128425677298 10.131212114096
645 6.476835727692 0.078533965708 -0.013241634333 -0.028456546199 -0.140305437930 -0.133499059640 10.195413372517
646 6.487623929977 0.077563667932 -0.027778513708 -0.022308343378 -0.136992341587 -0.111032321211 10.174075713158
647 6.497808933258 0.074586728209 -0.019608520131 -0.016067425101 -0.093497773139 -0.119452439658 10.182082890272
648 6.507447719574 0.070837238743 -0.033808278681 -0.008338364655 -0.081113032345 -0.152450817470 10.183903713226
649 6.517929553986 0.072335033829 -0.034499273277 -0.004871335152 -0.092023205850 -0.104829430394 10.177043759823
650 6.528129577637 0.068459984640 -0.035724587452 -0.003736661560 -0.058538558967 -0.031608412424 10.172003459930
651 6.537618875504 0.066775822373 -0.045771433405 0.001276662340 -0.075780284875 0.007874029048 10.145065337420
652 6.548229694366 0.057282148268 -0.045893597597 0.005200093546 -0.070012129974 -0.009348940089 10.126777585745
653 6.559611558914 0.056776842580 -0.051224501247 0.005071425935 -0.055785593907 -0.031530480003 10.028909229040
654 6.567663192749 0.057055821188 -0.051855262629 0.001862776893 -0.067968500694 -0.099501145994 9.965113767385
655 6.577368974686 0.051554500195 -0.049179842675 -0.002524247851 -0.062334096283 -0.071936169988 9.870673048496
656 6.587509870529 0.052077582484 -0.047483234291 -0.003949524073 -0.068515366106 -0.015169620003 9.825809701681
657 6.597716331482 0.050353198162 -0.055319273709 -0.011428443992 -0.092033785656 0.006231126473 9.824699900150
658 6.607133388519 0.051620459206 -0.054668883998 -0.019904043627 -0.067835001452 0.015719670549 9.774384024739
659 6.617416143417 0.053453833395 -0.059477966199 -0.011512604043 -0.005054250984 0.070612465432 9.677158861756
660 6.627753973007 0.044247764044 -0.058041523686 -0.022742935898 0.094643900497 0.130046114344 9.619349779487
661 6.637360334396 0.045186686453 -0.058769760925 -0.025362136105 0.132690499350 0.135020221928 9.559266130328
662 6.647173404694 0.036916272977 -0.055198079074 -0.031380701237 0.115721239988 0.056254225401 9.571561070681
663 6.659748554230 0.041140978573 -0.049687803202 -0.032746657366 0.001789624290 -0.062076695454 9.544224168062
664 6.667388439178 0.045502279365 -0.056009340360 -0.041923440268 -0.100172022628 -0.078564404631 9.501698538065
665 6.678050041199 0.050872622766 -0.064355491640 -0.053439714480 -0.085693256864 0.023481433627 9.382324122190
666 6.687285900116 0.046219335488 -0.064982154250 -0.054404203236 -0.015785541945 0.161870663613 9.327256799340
667 6.697790861130 0.049299239677 -0.064949006217 -0.063674142681 0.065594033212 0.215208416618 9.394886865020
668 6.707773208618 0.043022035830 -0.061911105072 -0.071545664560 0.093946400760 0.120388487522 9.534404354095
669 6.717044830322 0.049078996255 -0.065001645261 -0.077371961945 0.086535091465 -0.002256458507 9.637145780325
670 6.727089166641 0.050027160666 -0.059882966422 -0.086465383744 0.061102553895 -0.013593665193 9.621398059130
671 6.737109184265 0.052744346475 -0.058233217189 -0.089999797985 0.070657415902 0.077089892160 9.578366644979
672 6.746714115143 0.046468182925 -0.063656773877 -0.090784398531 0.083114917986 0.184812250771 9.524913738370
673 6.756445646286 0.045572599301 -0.066665259576 -0.086600314465 0.107923365785 0.226203192025 9.501730697751
674 6.766599178314 0.044199406864 -0.064775576174 -0.087954348787 0.135946959928 0.194619602859 9.576234165430
675 6.776365518570 0.045331042268 -0.067059569704 -0.088558603393 0.206291723382 0.161591130160 9.711970260143
676 6.787065029144 0.044311788101 -0.061854733442 -0.095868298151 0.259945591483 0.160281865485 9.851578381062
677 6.796668767929 0.038132172463 -0.055150608227 -0.103841918968 0.243997731060 0.162692508046 9.805564886928
678 6.806740999222 0.028414913501 -0.057300070510 -0.098553954630 0.199366226345 0.186540285721 9.754169615507
679 6.816257476807 0.030449741263 -0.057155036422 -0.099896520714 0.160450228751 0.251515258681 9.682706699967
680 6.827197790146 0.020769935085 -0.047362281004 -0.093548526716 0.158203929495 0.292702260017 9.636797286272
681 6.836557865143 0.019721604608 -0.046341204236 -0.083706948066 0.168144470192 0.272119238656 9.598468787670
682 6.847411632538 0.014232647550 -0.056266551787 -0.083403089708 0.202236715872 0.204109524228 9.592543219328
683 6.856228590012 0.015035158895 -0.055959609987 -0.083263481810 0.225787948351 0.176837671883 9.599605486393
684 6.866467475891 0.009275971088 -0.053512593548 -0.084236018306 0.217471398711 0.142735111350 9.635742448568
685 6.876953601837 0.007072592277 -0.047102173390 -0.086329113120 0.200749768931 0.188862233330 9.643356108069
686 6.886600732803 -0.000552489023 -0.040894989873 -0.075119460295 0.167940877452 0.194761032388 9.723286376595
687 6.896183967590 -0.002972368397 -0.045055966856 -0.075054013111 0.161002735812 0.171336501762 9.804960284829
688 6.906961441040 -0.002298668744 -0.048993737649 -0.073560603918 0.190647296906 0.154665724486 9.865087788105
689 6.916764736176 0.000623787619 -0.048324181501 -0.076074278447 0.232974432204 0.161929903217 9.825589846373
690 6.929743528366 -0.004285385097 -0.041431446224 -0.079678226160 0.242587821186 0.164782193284 9.814829800129
691 6.936131954193 -0.003267953790 -0.041959946381 -0.082207113996 0.229522528443 0.196601333879 9.795580766201
692 6.946612596512 -0.011117305633 -0.040473665305 -0.079855209859 0.240399701726 0.189671908244 9.825344263315
693 6.956531047821 -0.010523463362 -0.043778727280 -0.076001174675 0.218491335846 0.210388045125 9.872451771498
694 6.966358184814 -0.004748562906 -0.044886951834 -0.073059338744 0.263599004913 0.197174872644 9.949377740622
695 6.976262807846 -0.014012953404 -0.035134759689 -0.072267805656 0.321939142272 0.164922928456 10.010374724865
696 6.986248254776 -0.009627637349 -0.035465366171 -0.071229081285 0.406169526279 0.187636035662 10.029709128141
697 6.996727466583 -0.010046087576 -0.033071694097 -0.072399041242 0.487202579677 0.218098128866 10.023031607866
698 7.006722688675 -0.015649299447 -0.030494392904 -0.078454886468 0.509046644457 0.284977686144 10.094782791138
699 7.016888618469 -0.013897821622 -0.024049074932 -0.079929861593 0.506499341503 0.318532371707 10.177725545168
700 7.026736021042 -0.015091926878 -0.021945106931 -0.087950154308 0.488235453777 0.307861714773 10.264864261150
701 7.036980152130 -0.017217507056 -0.013937963574 -0.090698012243 0.492153965347 0.287818409689 10.267973810434
702 7.047421932220 -0.022404539669 -0.010744024075 -0.087582438341 0.501063404381 0.268733481523 10.286769100428
703 7.056496620178 -0.026340941432 -0.000132892657 -0.086838592481 0.531678913906 0.218292219881 10.242479950190
704 7.066127777100 -0.035310877860 0.010468170521 -0.088356244763 0.538674157262 0.163128015976 10.220428930521
705 7.076200246811 -0.036262745730 0.018024896355 -0.089119473441 0.529176195972 0.145094846589 10.164503821135
706 7.086886644363 -0.034070720723 0.021490773729 -0.088695156978 0.526224960051 0.165597167239 10.118259361982
707 7.097323179245 -0.042074653723 0.019485413429 -0.083129824413 0.548604520150 0.217156909872 10.150841217041
708 7.106102466583 -0.037866239183 0.026155697772 -0.082183353606 0.560081617758 0.247674113084 10.158724433184
709 7.116844177246 -0.041753755295 0.031450120276 -0.079221344230 0.553386775106 0.213269406818 10.159180516005
710 7.129290103912 -0.044542721618 0.039308640519 -0.080421747446 0.576726850010 0.115557691539 10.172134437561
711 7.136663913727 -0.046181048386 0.043504097115 -0.076792982402 0.532539295144 0.046273941910 10.166702374220
712 7.146428346634 -0.048556488210 0.046198167519 -0.073190025052 0.500678621046 0.027532932807 10.129903507233
713 7.156386375427 -0.053206230154 0.048607945476 -0.061836390920 0.436921677925 0.042883228348 10.016973892450
714 7.169261455536 -0.058096401449 0.045792135321 -0.052967040838 0.385335166007 0.027403556309 9.910411895514
715 7.176048994064 -0.056065582993 0.045517064070 -0.036314952009 0.279881417435 -0.038928103158 9.862584010363
716 7.186529874802 -0.058346022867 0.034145000031 -0.019480511548 0.265616093315 -0.099277992491 9.866426800489
717 7.196749448776 -0.061676497225 0.029846753739 -0.014430338367 0.324014428742 -0.082405285276 9.912168399096
718 7.206355094910 -0.057529193910 0.027945404443 -0.010785944936 0.386470549107 -0.053258317667 9.980111875534
719 7.217261075974 -0.056239587281 0.029733583957 -0.002879548650 0.389175544158 -0.026332104290 10.026772656441
720 7.229164361954 -0.054095775893 0.032128002964 -0.001710599213 0.401736423187 -0.006932136253 10.036586623192
721 7.235909938812 -0.052191653164 0.024799458020 0.004219642208 0.372647767849 -0.006119563426 10.023528621197
722 7.247559070587 -0.050497965934 0.024964804954 0.006332006709 0.383158247620 -0.032333844036 10.009909286499
723 7.256502389908 -0.050681178934 0.018645446179 0.013522776760 0.373713751808 -0.059031150341 9.967132226229
724 7.266847610474 -0.044589381033 0.020008004697 0.020367876823 0.392073789686 -0.119801564114 9.975572097301
725 7.276051998138 -0.047081463151 0.024133919499 0.027215284266 0.417748255804 -0.098400672600 9.922496920824
726 7.286908864975 -0.050141339536 0.024211371714 0.026765089367 0.381295141988 -0.126486859359 9.883901789188
727 7.296869754791 -0.048666684823 0.028426745842 0.024045612823 0.241747704204 -0.190308158398 9.801678827405
728 7.306576013565 -0.047832923987 0.024573224566 0.037480288884 0.134561206363 -0.214689604137 9.724849337339
729 7.316398859024 -0.041450437891 0.011314647951 0.039776320735 0.166452888977 -0.182891257703 9.689997008443
730 7.327885627747 -0.037473073382 0.011402871404 0.039051458220 0.279263476375 -0.104059425183 9.669461002350
731 7.336617231369 -0.029112765736 0.007150592728 0.028854518173 0.362529855520 -0.058500118093 9.633839179873
732 7.346945524216 -0.022372196826 0.006819570127 0.021863031635 0.348654668592 -0.099242297066 9.621282868981
733 7.356254100800 -0.017159913077 0.001150039043 0.015434684033 0.282257999964 -0.111440621316 9.602905070186
734 7.366405248642 -0.011924408851 -0.002521618759 0.018290378146 0.182236625366 -0.112552076513 9.560333831906
735 7.376883506775 -0.011018318224 -0.000714124436 0.022971206254 0.140835378394 -0.111914218375 9.511517182589
736 7.386644601822 -0.017196212170 -0.005588492184 0.034105063017 0.134297579164 -0.144130028598 9.543158805370
737 7.397380113602 -0.015314464156 -0.017622613389 0.039543918318 0.156340476684 -0.187803759389 9.573840900064
738 7.406356811523 -0.010432751518 -0.019981504164 0.045329219667 0.180190465339 -0.157779531274 9.602029742002
739 7.416972398758 -0.009179164143 -0.019854188419 0.047694764183 0.199524996523 -0.073277932392 9.592180107236
740 7.429831981659 -0.012765009642 -0.023121412701 0.053527577990 0.218135094233 0.012522993183 9.624285414219
741 7.436561346054 -0.017034012136 -0.028257737062 0.052196030735 0.181009678524 0.006578652652 9.696190963984
742 7.446271419525 -0.019669716660 -0.019131726910 0.052624583289 0.100569258705 -0.056387121649 9.775728299618
743 7.457229614258 -0.013310425033 -0.025120853710 0.047759524770 0.076044017142 -0.187389283162 9.884673621655
744 7.466939449310 -0.006281010815 -0.028537194207 0.040483789478 0.071781817200 -0.165326971058 9.866981116533
745 7.476922512054 -0.008588908297 -0.020942961493 0.030321304078 0.123161812769 -0.098931444464 9.792353103161
746 7.486179113388 -0.004090295283 -0.020122745328 0.028582066391 0.164223674554 -0.049183096150 9.807697951198
747 7.497840881348 -0.001054669918 -0.023007285845 0.012691291054 0.087567152437 -0.069251685874 9.827465633154
748 7.506685733795 0.001052618517 -0.028524309085 0.008933436557 0.001239054261 -0.069654819416 9.814109423161
749 7.516697406769 0.004250374151 -0.031205529736 0.005252316470 -0.027543348160 -0.090428770641 9.854853991270
750 7.528165102005 0.011084886849 -0.032256868752 0.000724117727 -0.022814972098 -0.046880672760 9.899722015858
751 7.536936998367 0.013167101193 -0.037686080497 -0.006070608606 0.064917537770 -0.004696247211 9.903516858816
752 7.546664476395 0.019796358292 -0.043347727947 -0.004097601811 0.207958691474 0.026089355762 9.903160178661
753 7.557056665421 0.020663905903 -0.048661183731 -0.002277940300 0.304696087036 0.076580659063 9.964656515121
754 7.566788673401 0.019407151863 -0.051962879304 -0.007490270603 0.294215464611 0.057214374756 10.033604543209
755 7.576224803925 0.019649745032 -0.051324711005 -0.005246006547 0.228841875996 0.015369873435 10.131207436323
756 7.587082624435 0.015064349637 -0.045957675750 -0.004760605907 0.172508466505 0.017759380366 10.136490980387
757 7.597708940506 0.017149515305 -0.052177305384 0.004566758989 0.182410232853 0.078275981583 10.139711626768
758 7.606353759766 0.012178760501 -0.046717184326 0.005361025978 0.269959898461 0.154011329692 10.150537161827
759 7.616574525833 0.014803062325 -0.058312134142 0.003191510144 0.324220908545 0.171458836477 10.194836837053
760 7.628600835800 0.011818910221 -0.046632221165 -0.003016591695 0.366843858138 0.188252533190 10.207791928053
761 7.636736631393 0.012838508726 -0.047793862904 -0.004279639535 0.317630950324 0.212197027467 10.279144331217
762 7.646647930145 0.013261547704 -0.047542681040 -0.008037288572 0.249224429224 0.256644271798 10.331842947006
763 7.656367778778 0.005116398507 -0.047546201406 -0.013312656470 0.185617558546 0.279426796418 10.370580750704
764 7.666998386383 0.007414278446 -0.052844955708 -0.003844745068 0.181709151696 0.280748705696 10.335264737606
765 7.676688671112 0.003798233896 -0.063458538985 0.004447043136 0.209042070899 0.242281244360 10.298918445110
766 7.687020540237 0.005396816366 -0.063979465778 0.009494145359 0.236745758392 0.170144364126 10.242784005404
767 7.696866512299 -0.003700159088 -0.067818770351 0.013119113319 0.214635627028 0.090573470956 10.160194423199
768 7.706546783447 -0.004611285274 -0.063377795270 0.017550104667 0.150819627028 0.019354361468 10.146841721535
769 7.717250823975 -0.010583503081 -0.064614687954 0.015975872696 0.037137770236 -0.011402225839 10.177056623697
770 7.728902101517 -0.014239387636 -0.069518919908 0.021383816603 -0.029683831085 0.002486582703 10.217022342682
771 7.736198902130 -0.016086917151 -0.071225644143 0.025480320120 -0.009751804682 0.041372746364 10.199541506767
772 7.746994972229 -0.019199930882 -0.074020157331 0.022103361117 0.101218747320 0.082202816298 10.178459955454
773 7.756701946259 -0.014013186431 -0.067737847705 0.013479007291 0.185387561973 0.081025872286 10.182281695604
774 7.767083406448 -0.006019290740 -0.070839419206 0.001766911026 0.206381514687 0.060495087574 10.168201600313
775 7.776286125183 -0.006810509138 -0.061671487153 -0.008460312466 0.163621904701 0.041505546682 10.189153343439
776 7.786551475525 -0.006634200591 -0.062675270019 -0.013639008137 0.092289893702 0.039384245365 10.201693282127
777 7.797814846039 -0.008049785144 -0.073618178132 -0.012900331514 0.036379331548 0.035000117272 10.153350841999
778 7.806479215622 -0.010452044872 -0.079108334653 0.007137583290 0.029768410146 -0.010655578655 10.051014043093
779 7.816960573196 -0.021576974844 -0.088535425570 0.021290803621 0.101469373601 -0.050579886334 10.020313822031
780 7.828280210495 -0.018754783506 -0.095436907666 0.034489941810 0.226278273929 -0.059513851698 10.020517305136
781 7.836707592010 -0.027224085181 -0.098112960120 0.038179489345 0.301578534376 -0.066391840107 10.084726749659
782 7.846937894821 -0.032668816080 -0.093726018080 0.042380971343 0.288383396901 0.030118352298 10.091779661179
783 7.856594800949 -0.027853637737 -0.097230937812 0.045962115739 0.259287395999 0.144154440723 10.101349214315
784 7.866314172745 -0.034487715573 -0.102352970569 0.044377547374 0.247709196378 0.198942796569 10.144154341221
785 7.877216339111 -0.036220051928 -0.101909079872 0.043154066202 0.236538182236 0.158539979942 10.159631921053
786 7.886578083038 -0.033219376782 -0.104281506995 0.039963736535 0.284601984266 0.041003960646 10.093336189985
787 7.897441387177 -0.033294532020 -0.100071373884 0.038492677089 0.350588817894 -0.067102089515 10.008753876686
788 7.906367778778 -0.034375217823 -0.101579755036 0.040524897866 0.398857619651 -0.094957046304 9.895574001074
789 7.916803121567 -0.031658568807 -0.101792183745 0.038350472609 0.396143707596 -0.074807244237 9.846176723242
790 7.928929805756 -0.038425448917 -0.101721942871 0.044802496338 0.366959121376 -0.067869216800 9.861968883276
791 7.936922788620 -0.036459782200 -0.105594104195 0.050721783818 0.338247830719 -0.040734742046 9.884472477436
792 7.946449041367 -0.039201464930 -0.108607670706 0.051931391585 0.348132219873 0.010734160894 9.891636486053
793 7.956103563309 -0.044909318226 -0.108663397351 0.049433716829 0.403344407491 -0.021822998815 9.895143646002
794 7.967097043991 -0.044588669469 -0.105510788865 0.045053902906 0.514819710106 -0.051882682526 9.902229301929
795 7.976059436798 -0.037060703694 -0.095990920074 0.035032078184 0.615452922732 -0.076917536343 9.908246086836
796 7.985570669174 -0.040527061685 -0.093980233451 0.029087201470 0.634770515263 -0.070714750593 9.959698076248
797 7.996170997620 -0.036917891680 -0.094133023996 0.032725002537 0.623516086936 -0.060799343786 9.928878571987
798 8.006368637085 -0.034089999512 -0.095422659754 0.025887608997 0.614344875365 -0.015811379330 9.817036539316
799 8.016352415085 -0.035952096311 -0.090608679833 0.033258371286 0.654146726131 -0.000661996888 9.697904782891
800 8.027672767639 -0.040462704733 -0.091694400676 0.035318859021 0.688068470657 -0.047197002559 9.603433658481
801 8.035553693771 -0.042140795825 -0.090735612749 0.040007637081 0.677941166237 -0.184895226415 9.522354412079
802 8.045747756958 -0.037377070586 -0.107076111730 0.042537315544 0.679362112731 -0.287486909106 9.489000139832
803 8.056379318237 -0.036115880718 -0.103741717532 0.052539998796 0.708167982101 -0.259334593993 9.519978688359
804 8.066394805908 -0.030550288078 -0.113242844326 0.055180002868 0.712604264617 -0.200528451819 9.579547197819
805 8.075467824936 -0.029429163838 -0.118645091565 0.052169902628 0.759688383937 -0.138547993312 9.606103497148
806 8.086398124695 -0.025634119753 -0.122100526434 0.064176102773 0.858820397034 -0.092942196289 9.669549295306
807 8.096674919128 -0.024968620764 -0.125681629218 0.075671233983 0.958006789237 -0.081296223784 9.793257082701
808 8.105096578598 -0.031236771944 -0.123261648025 0.071751676715 1.040595201999 -0.078051896179 9.917953634262
809 8.116092681885 -0.027479719517 -0.117449240689 0.073312938259 1.111034270078 -0.108624647940 10.055726898909
810 8.127896308899 -0.034967504850 -0.105081870127 0.073468109005 1.117578985468 -0.112667915337 10.125633870363
811 8.135797262192 -0.040256035110 -0.102201228644 0.078605463261 1.076100080162 -0.034029244215 10.129608807564
812 8.145937442780 -0.053551812756 -0.091171330870 0.075861583422 1.034976247028 -0.006291019892 10.148823927641
813 8.155686378479 -0.058275482388 -0.080758678936 0.075650760933 1.013773439080 -0.021492140056 10.120662567616
814 8.166515588760 -0.063901784698 -0.070700210782 0.076508115711 0.997645356506 -0.051457777242 10.127086318731
815 8.175680398941 -0.065710391489 -0.064081007117 0.075138069133 1.014407569617 -0.081191659123 10.135666522980
816 8.186098814011 -0.064962138930 -0.055423894328 0.075042062176 1.029202121571 -0.117946763355 10.068487862349
817 8.195766925812 -0.068445753373 -0.059749005258 0.068694155563 1.013792223260 -0.140580348428 10.002465780973
818 8.205932140350 -0.065490576670 -0.054014786667 0.066477997739 0.979395831004 -0.159386949129 9.939876015186
819 8.216567754745 -0.068530862176 -0.049330814781 0.068790112586 0.886794134527 -0.158154118527 9.847554327250
820 8.226516723633 -0.067791743427 -0.050873966830 0.065391149215 0.823746897206 -0.221345014628 9.800230472088
821 8.236005067825 -0.071184847844 -0.050363043536 0.066616785883 0.796185022965 -0.279144284539 9.736122184396
822 8.246222257614 -0.064820571113 -0.049277147924 0.062497354213 0.819494363442 -0.324100419357 9.709841288924
823 8.256009340286 -0.056377189485 -0.045500893689 0.056753660595 0.899882542044 -0.314204153046 9.691023779511
824 8.267426729202 -0.048142245986 -0.044195278964 0.044229163528 0.975167636275 -0.237853239309 9.585856343508
825 8.275602102280 -0.047765275534 -0.032684408056 0.030180221038 1.015180863887 -0.183556524664 9.512588977218
826 8.285269260406 -0.042624567359 -0.032722150042 0.026909913315 0.978529200554 -0.143845369695 9.480571963191
827 8.297883987427 -0.043562095770 -0.030102348544 0.020333952728 0.923445724770 -0.196566488128 9.487247144580
828 8.305884838104 -0.036322121738 -0.033416983335 0.019917149292 0.899704275057 -0.304772100840 9.581264525056
829 8.316621780396 -0.030872041630 -0.033086534978 0.023785053719 0.891465109661 -0.394405330382 9.621863497496
830 8.327769517899 -0.028708986823 -0.028678766186 0.020332105160 0.973531512246 -0.436759271510 9.623389036059
831 8.336006641388 -0.027679044641 -0.026658404798 0.017082967487 1.039725209400 -0.391052646562 9.607055423856
832 8.346510887146 -0.032766641477 -0.009338428458 0.006577756141 1.038126142099 -0.350008262470 9.598911421895
833 8.356672286987 -0.032500604168 -0.006100264361 0.003774542686 0.988472536951 -0.295955906622 9.657863050103
834 8.367181062698 -0.024414506407 0.002377417429 0.000436288042 0.948036190197 -0.290861264169 9.772643308640
835 8.375942945480 -0.025277543289 0.000831934464 -0.001545084661 0.991160867438 -0.281871572100 9.868005548716
836 8.385977268219 -0.020686035108 0.013659221113 -0.002016022958 1.103112535402 -0.244896904919 9.845912429094
837 8.397097587585 -0.025775727102 0.020283221590 -0.002337808889 1.219951452389 -0.303983731717 9.765350661278
838 8.406035661697 -0.025654322327 0.033931256386 -0.001621211407 1.223828521818 -0.358701427616 9.783089359403
839 8.416704416275 -0.022123484628 0.030359112643 -0.004713181354 1.072099561393 -0.356215995513 9.813857992887
840 8.428254604340 -0.027314174927 0.052060717184 -0.000801135162 0.975338594243 -0.363009985015 9.800052716732
841 8.435521602631 -0.032181178801 0.050034043273 0.010563435746 0.926589260995 -0.390594151765 9.865473704338
842 8.445659160614 -0.032532102290 0.054778955775 0.020408841650 0.929831395894 -0.401731964685 9.863499684334
843 8.456301927567 -0.031821912128 0.061751169765 0.027057681305 1.018694090322 -0.434664067961 9.764806285501
844 8.465957880020 -0.030587998855 0.066447325614 0.035397018638 1.128576428667 -0.481481334977 9.693359742165
845 8.476315498352 -0.034496976300 0.070236379667 0.042045321500 1.119525304288 -0.538096342720 9.645993787050
846 8.485946655273 -0.030939567328 0.076825880764 0.044679516552 1.052718380392 -0.569940863885 9.658594536781
847 8.496850013733 -0.028482455844 0.082367436294 0.049788029606 0.945581821427 -0.577103556879 9.702208333611
848 8.506411075592 -0.022810598915 0.074858811726 0.062149495441 0.880594843403 -0.566414261945 9.746805047393
849 8.516788721085 -0.022952537079 0.086341022443 0.066253214460 0.873814046681 -0.504279372990 9.674170934558
850 8.529083490372 -0.014930859728 0.086796472924 0.064605924490 0.935696153194 -0.524763302319 9.575480459332
851 8.535205364227 -0.011337488718 0.091416849356 0.062210036582 0.918535525426 -0.644136073664 9.512162130475
852 8.547020673752 -0.006231871332 0.100852995020 0.054018852149 0.878965882212 -0.788337401748 9.464095678926
853 8.556337833405 0.003363124609 0.103550743914 0.051583728388 0.810064120218 -0.857677778006 9.481171887517
854 8.566093444824 0.017706840020 0.107345665244 0.048321468405 0.768020300791 -0.813854870126 9.518115765452
855 8.575579643250 0.022508910617 0.113373747016 0.044199743920 0.757053336203 -0.735351833850 9.544785500765
856 8.586086273193 0.035444198201 0.105090209150 0.046541128572 0.801523019224 -0.695076797158 9.536466082335
857 8.595893621445 0.043092567987 0.114051629704 0.053636713500 0.882654232755 -0.666054580808 9.522070237398
858 8.606637239456 0.056752008603 0.110744782579 0.050709695563 0.934752778038 -0.708663460538 9.503504158258
859 8.616164922714 0.055761142068 0.117734415307 0.050607946165 0.906837293431 -0.748191296160 9.514684619308
860 8.625447750092 0.069144608455 0.103976100675 0.056135316202 0.764475718662 -0.839219945446 9.594229556322
861 8.636526346207 0.075594718036 0.112357135204 0.066486494888 0.599577403329 -0.885303533077 9.678724161386
862 8.646655559540 0.087957061882 0.101991712768 0.071760040705 0.488958242722 -0.917937793806 9.718131471276
863 8.656912803650 0.089558254198 0.093804181858 0.079166408210 0.499554457292 -0.863572867736 9.740530984998
864 8.666077136993 0.097849581811 0.101859828037 0.086573316669 0.581565018967 -0.761917269453 9.742174637318
865 8.675934553146 0.097575467633 0.097366734060 0.088677388700 0.680346345305 -0.667363553122 9.762530549169
866 8.686122417450 0.104599197146 0.105955836372 0.087530822950 0.706334660724 -0.619617382810 9.857136744261
867 8.696481704712 0.100374940959 0.106175364070 0.084213339825 0.688891246989 -0.633281375617 9.937809609175
868 8.705811262131 0.108694905876 0.104080729616 0.079072598361 0.578126600347 -0.688681989759 10.051673609018
869 8.716935873032 0.111255759968 0.110664596463 0.078050269075 0.417873824760 -0.739097852558 10.028159615994
870 8.726022720337 0.115082064987 0.105755483435 0.079742350085 0.376376062185 -0.716431267262 9.908781691790
871 8.735913276672 0.112295574571 0.106549330144 0.091086059781 0.396314994469 -0.625974621847 9.827329977751
872 8.745114564896 0.117388162754 0.104294847768 0.087512438816 0.457165579051 -0.559533258565 9.808741094470
873 8.757764339447 0.119354124915 0.105201970369 0.087746380873 0.461695234291 -0.590721173957 9.819540317059
874 8.766515493393 0.121269611852 0.104022606125 0.084861553234 0.409138303846 -0.599634925313 9.860586601496
875 8.775962829590 0.120613334058 0.098281055519 0.079389855748 0.344461155161 -0.602695577256 9.844568738937
876 8.785672187805 0.122260316100 0.095229697088 0.078600802729 0.281659975983 -0.588456218429 9.864353377819
877 8.797786712646 0.121561436051 0.092891949316 0.077697841316 0.290713146888 -0.470987117775 9.908199309111
878 8.805627822876 0.117743470055 0.091498308796 0.075892908855 0.351411448047 -0.376878155284 9.954329162836
879 8.816215276718 0.116046562065 0.094609446871 0.075429984878 0.438142613098 -0.327420139499 9.939273751974
880 8.825912475586 0.111808149513 0.099782479163 0.065956192936 0.443121955767 -0.347598551810 9.932835967541
881 8.835733175278 0.115023300673 0.103245212758 0.062741632664 0.378798892535 -0.378918797001 9.920098392963
882 8.846246957779 0.111854255489 0.099379784239 0.051820862078 0.349282842278 -0.390476622730 9.986623334885
883 8.855905294418 0.113302782095 0.101955610290 0.042598297772 0.359080290645 -0.294376792945 10.016873320341
884 8.866440534592 0.111634544699 0.101330899277 0.031331493094 0.422088315077 -0.141109521445 10.065818023682
885 8.876226663589 0.106840871382 0.100521822616 0.017511599103 0.463424840681 -0.016357766229 10.133014225960
886 8.886190891266 0.101920573077 0.114666586890 0.002937558489 0.447141002901 0.025789953195 10.098121551275
887 8.897227048874 0.097511818083 0.119077305965 -0.012572459974 0.402477923222 -0.048405174357 10.072841699123
888 8.905820369720 0.095729855386 0.122865228174 -0.014556124874 0.384021844827 -0.093101971457 10.055199480057
889 8.915815591812 0.091469788005 0.121877503338 -0.020774239835 0.385209962502 -0.072969838944 10.073862622976
890 8.929616451263 0.083324060402 0.121071580858 -0.029620786601 0.373745984584 -0.023106074359 10.101343367100
891 8.935778617859 0.087143258110 0.112525230603 -0.032159043355 0.401955145597 0.010202863694 10.112846009731
892 8.945903301239 0.076115965241 0.116092201988 -0.021728791671 0.438235510737 0.122376084030 10.145106267929
893 8.957270145416 0.072028870172 0.107214229922 -0.021785500358 0.494184849523 0.218295490667 10.176020497084
894 8.965934276581 0.062095720393 0.108660126657 -0.011533344451 0.538107379340 0.274138391856 10.241643798351
895 8.975747108459 0.047829008308 0.104652002637 -0.009728134230 0.496020802148 0.214834340997 10.222232211828
896 8.985238552094 0.037403485815 0.103741434571 -0.003974894323 0.376420172118 0.147443508664 10.118599669933
897 8.996080875397 0.028755540127 0.099076716507 0.009451845831 0.294808244370 0.088775461279 10.000276583433
898 9.005765914917 0.027232247353 0.096990995320 0.016538379132 0.242210620958 0.091926105525 9.900423681736
899 9.016175031662 0.019896293412 0.094000972818 0.013602676794 0.221904721074 0.145319580669 9.792698088884
900 9.028924703598 0.018113469348 0.093998883901 0.006333520862 0.223023165520 0.186379030477 9.798626580834
901 9.036051988602 0.012441104755 0.093659613823 -0.007028981454 0.221046715267 0.227047511693 9.807130771279
902 9.045764446259 0.008279760027 0.103499602899 -0.007621169652 0.217376856543 0.236952603646 9.790162151456
903 9.057376861572 0.004354898022 0.099354559110 -0.020856177812 0.242254146170 0.209389157966 9.820679354668
904 9.066462993622 -0.000289266140 0.096245451695 -0.028893458582 0.275977176726 0.159644116983 9.772949702740
905 9.075724363327 -0.004407917554 0.109963103187 -0.034410839684 0.301227993798 0.095807624320 9.744702973366
906 9.085753440857 -0.002418087852 0.108193091425 -0.047905520094 0.285464649573 0.089972157916 9.828545029163
907 9.097487926483 -0.002654027800 0.113191886403 -0.061733218395 0.281626208313 0.166116875075 9.759899886847
908 9.106132745743 -0.003364085063 0.109267377319 -0.077847885477 0.272305015661 0.274439359009 9.727981106043
909 9.116569280624 -0.009690822927 0.102437401098 -0.077925466688 0.328492080308 0.351130781695 9.736447289586
910 9.124559402466 -0.010565386303 0.102869590531 -0.077256880096 0.368213312589 0.350431491248 9.759089462757
911 9.136205434799 -0.016513355821 0.100719071306 -0.082786734363 0.349543189555 0.183759934679 9.753749200702
912 9.146264076233 -0.018630426367 0.102292808096 -0.090795042853 0.316013829745 0.049638717589 9.700130817890
913 9.156361103058 -0.015890430998 0.097426938146 -0.083053866065 0.255936283618 0.010306498739 9.554766697884
914 9.166019439697 -0.019100482621 0.098744894957 -0.086438377626 0.209143666271 0.061595474174 9.460593781471
915 9.176033258438 -0.023997580216 0.094257002467 -0.085181465460 0.166775253285 0.153193962034 9.417711471319
916 9.185179471970 -0.020970215202 0.090650524752 -0.080130297755 0.166152817179 0.226586860735 9.366121487617
917 9.199041366577 -0.022268333544 0.081771196138 -0.082397105573 0.201529001780 0.220693981983 9.379888172150
918 9.205313920975 -0.023119407007 0.080704367095 -0.086802090529 0.219880360197 0.140030509159 9.354139958024
919 9.215898036957 -0.023669792939 0.074681162236 -0.090145456251 0.242604394387 0.050118563860 9.297035465240
920 9.224922180176 -0.024700783740 0.074865469629 -0.091836247293 0.210194136836 -0.017232027752 9.313272598386
921 9.236289978027 -0.023293448746 0.067510788255 -0.093105484902 0.113295084033 -0.068326985263 9.291597554684
922 9.245096683502 -0.018667467192 0.060684041116 -0.091995629162 0.069514458831 -0.051388738984 9.266387869120
923 9.255261421204 -0.021157757919 0.057811068706 -0.086752522444 0.106220154092 0.036488108032 9.245603356361
924 9.266131639481 -0.020545572085 0.058239563003 -0.093839110881 0.130041400027 0.082112778313 9.246315547228
925 9.274178504944 -0.017831552941 0.046474087652 -0.093562574891 0.152923290767 0.074063948924 9.212550215721
926 9.284451246262 -0.011736083830 0.038324635786 -0.086635576382 0.165521975700 0.046814813926 9.181938872337
927 9.297234535217 -0.012368164309 0.032334393788 -0.085106181225 0.141049194625 -0.039201053926 9.153447729349
928 9.305771350861 -0.014121321174 0.025303068024 -0.082621019164 0.091676813141 -0.124071045667 9.137021146417
929 9.316400051117 -0.009899448309 0.016121713015 -0.081559408252 0.030984859408 -0.184967384711 9.225566702485
930 9.324919700623 -0.004515073898 0.011185842500 -0.075670368456 0.011152229961 -0.200069628116 9.305330910087
931 9.334365844727 -0.002573240132 0.014675923431 -0.086815289822 0.047644392215 -0.100475812890 9.380031428933
932 9.346490621567 0.002230689736 0.014045753978 -0.095426354890 0.117465035012 -0.011410631211 9.478786223531
933 9.354611635208 0.002780949012 0.015244567621 -0.107186075316 0.202181605864 0.067424499504 9.509050242305
934 9.365933895111 0.007207289972 0.021898495370 -0.117179961813 0.248000588715 0.054703150950 9.554952639341
935 9.375258684158 0.008439453985 0.020981600215 -0.127631637380 0.220477561913 -0.041401973306 9.586196066737
936 9.386007785797 0.008472404882 0.021254630403 -0.135031629943 0.155234969202 -0.140880502453 9.611718578339
937 9.398249149323 0.013924179634 0.027966503752 -0.138246922583 0.092540090578 -0.216192886736 9.618828792572
938 9.406207799911 0.019194937455 0.019856352237 -0.141062299975 0.114167908877 -0.159428829812 9.619838021994
939 9.415998697281 0.021168968162 0.024383124798 -0.144708350599 0.163987666313 -0.014403555952 9.620021039844
940 9.425227642059 0.024833176136 0.021489161269 -0.148212687764 0.241352962330 0.096772835171 9.621908521056
941 9.434649467468 0.022495911062 0.026798127129 -0.151947687969 0.315271525718 0.119029740784 9.650133615732
942 9.445075988770 0.020752514266 0.030190141314 -0.153563361224 0.312544859424 0.038393315901 9.720470942259
943 9.454990386963 0.020246519901 0.037220010661 -0.159739231792 0.197563200854 -0.077819962716 9.771746930480
944 9.465500354767 0.019625031729 0.030593576929 -0.162288076692 0.075580497393 -0.175452429950 9.760555359721
945 9.475252151489 0.024124885558 0.028801833357 -0.162680693216 0.007997626282 -0.178735860810 9.718025051951
946 9.485011816025 0.029686756014 0.029376404120 -0.156364690440 0.050677836332 -0.070889847293 9.669170980453
947 9.496572732925 0.026175317779 0.033005936904 -0.154130148483 0.109583308082 0.043393283710 9.638975958824
948 9.505105018616 0.031014828676 0.033268493379 -0.151971123787 0.121916364972 0.081518838247 9.645165236592
949 9.514873504639 0.032125092212 0.036014788787 -0.148056626524 0.068661318091 0.018069937181 9.659946413040
950 9.526771545410 0.029349472904 0.029528585051 -0.158837202486 -0.038655910701 -0.089071814613 9.670476078987
951 9.536473512650 0.033035435574 0.033267650738 -0.159621237111 -0.124499070989 -0.209660231229 9.615850220919
952 9.544277906418 0.038785799579 0.031437798995 -0.153751213949 -0.196944090351 -0.262206417415 9.563294277191
953 9.555677652359 0.046941647194 0.025404315999 -0.145545631801 -0.218169702441 -0.276944909189 9.494425771236
954 9.566112041473 0.048253715923 0.025989893108 -0.138300884885 -0.200490645915 -0.207102330197 9.499957821965
955 9.576154232025 0.051734567336 0.030153044312 -0.144421628018 -0.139049090557 -0.147612968283 9.587844981551
956 9.585152864456 0.058797133228 0.030308433520 -0.148413639913 -0.108546624156 -0.129127123905 9.703578336239
957 9.597111463547 0.063325672214 0.035146914522 -0.153256814737 -0.152021202436 -0.117355600717 9.804818782210
958 9.605627536774 0.071415119732 0.037484441751 -0.161139571827 -0.224274487942 -0.149938305449 9.839548319578
959 9.615509271622 0.080147666558 0.026553037246 -0.165243103593 -0.287716467138 -0.188559731282 9.811760011911
960 9.624871969223 0.085551195443 0.027226879419 -0.158792294932 -0.339646119252 -0.199972271975 9.696827141047
961 9.635973453522 0.092214441135 0.021022032410 -0.147758668733 -0.371983706877 -0.208499705102 9.524309136271
962 9.644875288010 0.097108806909 0.012103654156 -0.145734849397 -0.413803139403 -0.238566489983 9.475065640211
963 9.655943870544 0.107673425473 0.008955694758 -0.127187521978 -0.416819827594 -0.248832574412 9.481316898465
964 9.665203332901 0.114124192522 -0.003219933147 -0.116726408835 -0.466956595480 -0.240920323189 9.515396810174
965 9.674781084061 0.117888013123 -0.014230820788 -0.101035812706 -0.476507218257 -0.217927993163 9.558475586772
966 9.685275554657 0.119445737657 -0.025707535614 -0.094802010062 -0.485581877679 -0.180778238419 9.590548734069
967 9.698194980621 0.119375679875 -0.022873147830 -0.078966912477 -0.472400755249 -0.173984559551 9.630983399749
968 9.705655574799 0.122218604339 -0.024468616431 -0.065268880993 -0.458339188322 -0.133359448230 9.694271907806
969 9.715660333633 0.123683567643 -0.033712500589 -0.057589764180 -0.400009155683 -0.080512715159 9.772408250570
970 9.725077867508 0.128370040404 -0.030776109574 -0.053690047462 -0.339928905219 0.027619320850 9.850515357256
971 9.735568761826 0.128591582117 -0.032897219594 -0.053668072222 -0.286293711662 0.145923433593 9.889704566002
972 9.744776964188 0.136118590819 -0.037073744861 -0.043516938545 -0.235006613731 0.185068797357 9.891484458447
973 9.755548715591 0.133447099028 -0.037179605514 -0.031300190548 -0.228288217764 0.221066833343 9.862345443964
974 9.766500711441 0.131781191898 -0.046000473581 -0.017844966534 -0.197686266471 0.293256777059 9.802517318130
975 9.775121212006 0.129672667394 -0.051999780730 -0.002169872916 -0.110907273022 0.344399795942 9.709841288924
976 9.784608602524 0.129366062652 -0.059898566720 0.019742647742 -0.056871691374 0.390734923482 9.710355843902
977 9.795789241791 0.130810078529 -0.065994916962 0.031543104129 -0.032676696440 0.370910998620 9.768393552303
978 9.806002616882 0.124428462122 -0.072661762083 0.038726997815 -0.022870876961 0.386960143782 9.774440742731
979 9.816579341888 0.125494617053 -0.077179848162 0.048459786334 0.003278695129 0.427530939952 9.775454649925
980 9.825934410095 0.125142705282 -0.070574268230 0.050789124343 0.057923692265 0.518540293425 9.814946744442
981 9.834766626358 0.119072495630 -0.063914517937 0.044958191393 0.075451648515 0.621796055362 9.858375184536
982 9.846146821976 0.118657500231 -0.052920572838 0.032889583812 0.073014318896 0.681077247262 9.916723380089
983 9.855888128281 0.113799503251 -0.042758615908 0.031151515419 0.062322146036 0.686107533798 9.864079728127
984 9.865358829498 0.115283350031 -0.042640883382 0.028319951002 0.069183990648 0.717268734723 9.760885727406
985 9.875438928604 0.109003458055 -0.034535044939 0.029670271463 0.051379936184 0.716976447031 9.664462217689
986 9.884884119034 0.107061464344 -0.042162176015 0.040435399009 0.006924179700 0.716900579408 9.509449607134
987 9.897558927536 0.103657977760 -0.046710771933 0.053828336263 -0.013068835333 0.717739581764 9.461521734595
988 9.905704736710 0.097304665762 -0.048418998358 0.061655487381 -0.043335135891 0.692409443557 9.445718464851
989 9.914636850357 0.091621937727 -0.047249204849 0.066101422600 -0.088122857194 0.663577919528 9.494218195081
990 9.924978733063 0.091923049700 -0.052035587763 0.080301888553 -0.088125442760 0.720317180604 9.552245378494
991 9.934690952301 0.089199443176 -0.052685249266 0.078107327301 -0.040899459939 0.821533287540 9.633205926418
992 9.945448398590 0.083947256742 -0.053693434670 0.075863963623 -0.027433381677 0.911842656210 9.651001342535
993 9.956734895706 0.075818282088 -0.036528516723 0.074629754905 -0.086824446414 0.956249920204 9.658158334494
994 9.965443611145 0.080029929871 -0.049473739146 0.063741154472 -0.177422448266 0.953582785875 9.584471722841
995 9.975428342819 0.071975914879 -0.047877065882 0.063262817451 -0.225242750309 0.991064388379 9.510253014565
996 9.985375404358 0.073387057361 -0.046673895474 0.064582384643 -0.221792984437 1.008872741461 9.414792541265
997 9.998554229736 0.070549891983 -0.048744707120 0.068161306963 -0.190473122969 1.088488575965 9.355859039426
998 10.005310773849 0.062822010195 -0.056222530566 0.072668994230 -0.187900622170 1.116493669152 9.320394507051
999 10.016318559647 0.058286455444 -0.062673971728 0.077022372118 -0.148132191896 1.154219539091 9.216963109374
1000 10.025525808334 0.053344847689 -0.067563235884 0.088158038998 -0.084266426610 1.201679780558 9.213094591498
1001 10.036565065384 0.048074868011 -0.063171704052 0.091021661217 -0.048113983017 1.229803937674 9.323776536584
1002 10.045863151550 0.040974580939 -0.058599734734 0.093707425887 -0.044778836276 1.206551242098 9.449274741411
1003 10.055854320526 0.042696909634 -0.067568254278 0.096349040339 -0.061207388076 1.225919266865 9.437045874596
1004 10.066612005234 0.031633897117 -0.066500101976 0.107762574790 -0.034535638215 1.286827738881 9.313562620282
1005 10.076675415039 0.027260152288 -0.068879340966 0.116084919907 0.006521486412 1.353534675390 9.310695145726
1006 10.084746837616 0.021280870862 -0.070494223594 0.119527088906 0.088390732761 1.409697035551 9.424149255753
1007 10.096743583679 0.015313779640 -0.073092112271 0.125303726659 0.106498408467 1.380429674685 9.519781637192
1008 10.104995727539 0.008883114256 -0.067682046158 0.135279761655 0.039568154002 1.337075494230 9.545366129279
1009 10.115336179733 -0.004442041907 -0.057965790043 0.129911161792 0.016444454627 1.313779309988 9.473774574995
1010 10.126003742218 -0.010029309661 -0.055747480884 0.137486223908 0.017528717987 1.129222619087 9.585394413471
1011 10.135550022125 -0.015806385379 -0.055047290061 0.151960055024 0.004906348404 1.109065220207 9.607525539994
1012 10.145762920380 -0.014833222625 -0.056452423786 0.157020693596 0.067180136140 1.179220844507 9.506596165895
1013 10.155326843262 -0.016760128905 -0.068456788847 0.164590179717 0.200447961241 1.332921486050 9.470082058311
1014 10.165906429291 -0.019802905923 -0.062795956989 0.174930967914 0.320458956175 1.386756508201 9.484759739041
1015 10.174916028976 -0.029971583173 -0.062503333842 0.175559573800 0.398018690385 1.434755716771 9.579914987683
1016 10.186557531357 -0.033926362828 -0.066367360041 0.174040872899 0.424670080058 1.398462633938 9.755782862306
1017 10.198073625565 -0.034485759815 -0.063252360382 0.178376415929 0.502820346504 1.452639279664 9.918285756111
1018 10.205764532089 -0.047483259258 -0.053852708348 0.182889724963 0.687540028542 1.596064316779 10.022405955791
1019 10.215857982635 -0.060036202214 -0.040155122110 0.178043753820 0.856058757082 1.661507377625 10.021216632128
1020 10.226169347763 -0.089228321829 -0.012941894512 0.180260852072 0.953419210017 1.633001178056 10.026920006275
1021 10.235406160355 -0.097265226011 -0.005103563839 0.184786078751 0.998888840005 1.449263097346 10.155983258486
1022 10.245167255402 -0.104093745816 0.015845101084 0.183009334185 1.070329243764 1.329359216094 10.105367420912
1023 10.255698204041 -0.121665066306 0.042852687913 0.168880399075 1.099055006281 1.326227008849 10.001898601055
1024 10.266675472260 -0.128658427460 0.058037279273 0.160946592517 1.081161868572 1.330181334615 9.990660252571
1025 10.275706529617 -0.140840541880 0.075648738595 0.155646901947 1.040289904252 1.331271986514 10.028559565544
1026 10.285830974579 -0.141500256816 0.087460498852 0.154108859839 1.067436114550 1.339475191534 10.081555219889
1027 10.294589519501 -0.148772933634 0.098361358149 0.151544918144 1.139812218994 1.316039551198 10.139671865702
1028 10.305278778076 -0.144266415661 0.119976022964 0.138286636973 1.066220551506 1.233301595896 10.089309797287
1029 10.315375089645 -0.150308412450 0.129551601756 0.127230199135 0.932434064671 1.082174679413 9.878903589249
1030 10.324764728546 -0.149834669381 0.136578402226 0.130237016197 0.722752107382 0.842463761419 9.714382236600
1031 10.334000587463 -0.156024721282 0.139681750555 0.130169480096 0.547618094869 0.584268771484 9.637925798893
1032 10.343948364258 -0.153795505647 0.146019591251 0.152242716284 0.454207180291 0.373964524269 9.563576112986
1033 10.355693340302 -0.145451871886 0.152243681680 0.151190434758 0.415426838100 0.286889360212 9.417578154802
1034 10.366638660431 -0.147524127465 0.161088921832 0.131194331062 0.447918317132 0.377142595612 9.190503873825
1035 10.374210596085 -0.147252102204 0.168081517327 0.143880839869 0.505495118760 0.456790041625 9.151935054660
1036 10.383761405945 -0.157170779368 0.186184454706 0.149609848651 0.500104022473 0.406112844832 9.482001607418
1037 10.394579410553 -0.152273592308 0.186615154433 0.144173671076 0.485738473423 0.352242300846 9.848850070238
1038 10.405314445496 -0.158384381877 0.191410508871 0.135925503318 0.574455572180 0.424999936111 9.969694476128
1039 10.414688348770 -0.157887652399 0.211994896529 0.134622793104 0.650923813954 0.510152937658 9.988709621429
1040 10.423805713654 -0.163217436689 0.229220039367 0.126462235023 0.633518480211 0.531385785677 9.896175094843
1041 10.434219837189 -0.172571606925 0.236629586021 0.116215822597 0.530114272088 0.416481639259 9.859958610535
1042 10.444877862930 -0.168487016893 0.247312340746 0.107689029932 0.367455001809 0.179255002197 9.941836001873
1043 10.455155849457 -0.160772671453 0.253786085882 0.098020922937 0.203265021835 0.041420789463 9.905356392860
1044 10.466742515564 -0.152078182863 0.252840979945 0.083781608122 0.084638912519 0.046650255919 9.751805586219
1045 10.474091529846 -0.149434878968 0.261192470031 0.068726209203 0.102991641378 0.101536781034 9.598456508517
1046 10.484039306641 -0.148207228284 0.261144649645 0.063937808113 0.114564359235 0.138048586277 9.627120144367
1047 10.497424125671 -0.138396026315 0.256314657468 0.057678201934 0.029108165852 0.120235564560 9.749659658074
1048 10.504396677017 -0.136019687674 0.255414092901 0.042898677376 -0.057484840457 0.088204818713 9.727694592476
1049 10.514167547226 -0.133813616573 0.248296095808 0.051992536099 -0.082872980302 0.071856483403 9.600193131566
1050 10.524689197540 -0.136835646943 0.242864462251 0.047416447204 -0.193645219188 0.012448827191 9.707842710614
1051 10.534180641174 -0.124169036942 0.224878637382 0.043142385744 -0.343818984702 -0.195756703578 9.805725100636
1052 10.545681715012 -0.115684771631 0.218198763578 0.042716492190 -0.430988215841 -0.267992748935 9.547237238288
1053 10.554424047470 -0.102387907914 0.203501326799 0.049601516783 -0.474944696054 -0.252653711569 9.347265971303
1054 10.567132472992 -0.103544893282 0.193377752678 0.036490995280 -0.508102976941 -0.210056087729 9.379382972717
1055 10.574494838715 -0.096000557388 0.182062297457 0.043782809407 -0.551273043193 -0.210943914335 9.439237995744
1056 10.583782672882 -0.082262099951 0.160047575912 0.036532565560 -0.621547767967 -0.176940016430 9.562651668191
1057 10.594076871872 -0.074161021908 0.147880708090 0.034323918683 -0.600755946189 -0.079451491199 9.645433623791
1058 10.605844497681 -0.070786696939 0.134943903752 0.037837360530 -0.481880188175 0.057025742666 9.657955436110
1059 10.614715576172 -0.074724072419 0.121344113783 0.036048602611 -0.419866738580 0.136999787651 9.684950276613
1060 10.624470949173 -0.081607245283 0.119037907825 0.039925520174 -0.316379755810 0.124410421718 9.692738767862
1061 10.633840560913 -0.084580781154 0.106628143067 0.038391826508 -0.302080316842 0.070127023193 9.720382064581
1062 10.644183397293 -0.088786420180 0.112396400186 0.032733926208 -0.315421945341 -0.010375608945 9.760358893275
1063 10.654029846191 -0.086059176776 0.102542496093 0.031982908539 -0.318510554284 -0.046835868470 9.773843742013
1064 10.665373802185 -0.088141319340 0.099971347218 0.018919712240 -0.400055641048 -0.082350860490 9.701019009948
1065 10.673648118973 -0.076428587063 0.091577005206 0.018609193899 -0.407184420191 -0.120550117353 9.624899371862
1066 10.684354305267 -0.068935125868 0.086383649665 0.003359696829 -0.397106159292 -0.101214800449 9.645367550254
1067 10.695004224777 -0.061132180388 0.088564720342 -0.020413456409 -0.376625299752 -0.003281363777 9.746085839868
1068 10.704248428345 -0.056774491508 0.082685068188 -0.040667788942 -0.379706051499 0.076014141524 9.823821648359
