# index timestamp wx wy wz ax ay az
0 0.006158113480 -0.000926061474 0.000927553130 0.000067868634 -0.072057869732 -0.542055857889 9.815874112844
1 0.013174533844 0.001904761081 0.001161208195 0.000267886649 -0.052586573088 -0.560274100788 9.811558867693
2 0.023304700851 0.000846949075 -0.001521355480 -0.000805347846 -0.049001270584 -0.550729215592 9.817865674496
3 0.035893201828 -0.004642149334 0.001994986716 0.002081631778 -0.070700762956 -0.552161454521 9.842302358150
4 0.044372797012 0.002552914543 0.003152769993 0.000894945662 -0.038627565410 -0.549374086820 9.847454924583
5 0.053152799606 -0.003011465630 -0.001516735259 0.000155413200 -0.058098971690 -0.562042956613 9.838288829327
6 0.074882984161 0.002847389680 -0.003237360207 -0.000318233869 -0.064705640157 -0.558411799148 9.832270874977
7 0.079024076462 -0.000256562412 -0.000870796785 -0.001708088975 -0.078927315725 -0.555020304434 9.815821487904
8 0.086924791336 0.000976047044 0.000524523718 -0.004080976040 -0.089898556089 -0.565321563520 9.822076839209
9 0.105591297150 -0.002139503777 -0.002500937129 0.002652295185 -0.083037022110 -0.578102919124 9.837569621801
10 0.110809087753 0.001761706548 -0.003555377012 -0.001163210377 -0.069315242367 -0.567691001482 9.833180701733
11 0.115295410156 -0.001625064928 0.002535803993 0.000812290855 -0.071459233621 -0.530145408511 9.823307093382
12 0.133141040802 0.000890523683 0.003190799881 0.003162577916 -0.071374325654 -0.537618917562 9.821320209503
13 0.139213323593 0.002463472122 -0.003060533853 -0.001272577223 -0.059420711948 -0.572588373497 9.803721844554
14 0.145317554474 -0.002256014474 0.010243286332 0.000666557817 -0.068662249991 -0.553424855098 9.828255007267
15 0.152661561966 0.000211015709 -0.008657044129 -0.000370613000 -0.078532153582 -0.557597355098 9.816726636887
16 0.167620658875 -0.000727710328 0.000846417028 -0.000292581243 -0.062331716283 -0.552023935318 9.830190435648
17 0.176695346832 -0.002435353926 0.005790939240 0.002157704428 -0.055267466647 -0.547988187075 9.827870260477
18 0.183696269989 -0.001215315488 -0.001419513885 0.002673853786 -0.063697886243 -0.553411150686 9.821642975807
19 0.199901580811 -0.001901269193 -0.001676592544 -0.000991073163 -0.068255311190 -0.570372753851 9.810143841505
20 0.209106922150 -0.001579416423 0.001224610935 0.000564726105 -0.075058226832 -0.548176686689 9.812868643999
21 0.213774204254 -0.001648434037 -0.004258571954 0.003021806966 -0.054444786245 -0.542725985348 9.803533564210
22 0.223592996597 -0.002071282640 0.000333065582 -0.002361746390 -0.072615141361 -0.557643657736 9.818391923904
23 0.236542224884 0.002872633534 -0.003502322629 0.003408631634 -0.070871794014 -0.562011235468 9.810196466446
24 0.245903730392 -0.002998266338 -0.000318880901 -0.001310137547 -0.041133819083 -0.547311262228 9.803758682013
25 0.253561019897 -0.001580063228 0.003728103034 -0.000743297493 -0.048319133492 -0.533607325628 9.811441923380
26 0.269991874695 0.002634902714 0.003851257330 -0.002146233980 -0.061286261533 -0.551954243816 9.823626351357
27 0.278093099594 -0.000453773586 0.001755804292 0.003087640360 -0.064521781770 -0.562285140976 9.854340605736
28 0.282849788666 0.000526762828 0.002283376113 -0.001766781769 -0.068947338299 -0.558671159707 9.817714816332
29 0.296438455582 -0.002315562912 0.004301213220 0.002076659417 -0.057242564731 -0.560615760908 9.812493252754
30 0.305484056473 -0.001401439370 -0.001769424254 0.001949463696 -0.047638193252 -0.534983175471 9.813638137579
31 0.313878297806 0.002256695869 -0.004605666108 0.002864509852 -0.066688102079 -0.551368827894 9.793530147672
32 0.322890281677 -0.000687506414 0.001314074942 -0.000320222430 -0.073326532803 -0.544829740450 9.796412824988
33 0.335355043411 -0.002826116900 -0.002547028021 -0.001512561196 -0.057755319863 -0.555619570948 9.815000538826
34 0.343888044357 -0.001259770383 -0.000494284941 0.000176483170 -0.076560796802 -0.565659240223 9.814567844868
35 0.352269887924 0.003436669727 0.003774897427 0.000970769031 -0.095187097695 -0.563789812289 9.830230196714
36 0.365050554276 -0.003732604660 -0.000549758632 -0.001940533264 -0.083553157663 -0.563239662386 9.812000917196
37 0.374249458313 0.001468539196 0.000678416881 -0.000471352433 -0.049399552764 -0.542458767593 9.825192235708
38 0.382182121277 -0.000696219554 0.005964293863 -0.001330447661 -0.062757484945 -0.547625915520 9.800291283131
39 0.395607948303 0.002030765271 -0.003779044312 0.000052064178 -0.055322430474 -0.566258616373 9.809951468110
40 0.403059244156 -0.001068659901 0.000193519859 0.000835461527 -0.066196771511 -0.548997160681 9.800252691507
41 0.412990331650 0.000520297673 -0.004960626470 -0.003668605310 -0.065097618308 -0.553988709413 9.838194104433
42 0.422250032425 0.001574545491 -0.000520552611 0.000718611433 -0.074533562567 -0.559337559566 9.829459533691
43 0.435477972031 0.000134331729 -0.002442565267 0.000854859756 -0.066844798322 -0.538083698116 9.822672085762
44 0.443867444992 -0.005096289560 0.000448445346 -0.000617674052 -0.053903334076 -0.555329220146 9.818278487921
45 0.451885223389 0.000934906667 -0.003874282490 -0.000675135848 -0.053171915920 -0.561971730217 9.827871429920
46 0.463614225388 -0.000257825576 -0.000671536095 0.000999963414 -0.056654362245 -0.545080586001 9.847537955046
47 0.477373361588 -0.000737606742 0.001026103484 -0.001958189580 -0.054866868421 -0.553082573712 9.817465724945
48 0.481927156448 -0.001260729277 -0.006091901931 -0.000411913226 -0.071750132600 -0.553744953610 9.821196248531
49 0.493953227997 0.000149901201 0.004293035963 0.001727407166 -0.075388366110 -0.541120339930 9.821809036732
50 0.504422903061 -0.000705532685 0.003797927529 0.003493232772 -0.081006256705 -0.558193113282 9.821896744967
51 0.512298583984 -0.003354446449 -0.001086201329 0.001356979794 -0.055926425010 -0.552965702489 9.821690922976
52 0.522327423096 -0.001253028736 -0.004284389012 -0.000752341708 -0.046726680854 -0.540723496713 9.824936127663
53 0.533194303513 0.000360130282 -0.003190950464 0.002380714651 -0.055368381366 -0.533396460414 9.832503594160
54 0.543345928192 0.004062941966 -0.004692410778 0.000149361238 -0.056840006774 -0.544896837249 9.816181676388
55 0.553174257278 -0.000596839367 -0.007312586784 -0.002837315441 -0.054265578222 -0.566813005507 9.807340686321
56 0.570142507553 -0.002005150291 0.001417325750 0.002202165825 -0.059126734044 -0.557692372352 9.816872817278
57 0.574020385742 -0.001343989211 0.005497999323 -0.001272529239 -0.069702844243 -0.546993283331 9.804745692015
58 0.582073211670 0.001139705120 -0.000370524965 -0.000365673929 -0.052790138419 -0.555849220343 9.833571295738
59 0.595361948013 -0.000994683580 0.001049955551 -0.002411279886 -0.069548655907 -0.537920926251 9.838083007336
60 0.603352069855 -0.001303834776 -0.004061339388 -0.001210656257 -0.078464134019 -0.544806278497 9.817599041462
61 0.612054109573 -0.004567229203 0.002181389267 -0.002161941949 -0.079585538618 -0.563739014603 9.809135781527
62 0.622284412384 -0.002257002756 0.000089097189 -0.002814319409 -0.080444860049 -0.568448617905 9.815945448875
63 0.637057542801 -0.001547591388 0.002764002309 -0.001299797642 -0.061724980865 -0.543122536205 9.809694775343
64 0.643699407578 -0.000449044330 -0.004329073682 0.002202207437 -0.067530114837 -0.571345693991 9.811034957170
65 0.652828931808 -0.002669440325 0.003595133013 -0.000679224867 -0.061426000851 -0.575099716075 9.808762729168
66 0.670134305954 0.000806818761 -0.001212035561 0.000812582333 -0.068651743275 -0.548388904072 9.822762132883
67 0.675645351410 0.000261682105 0.002159612594 0.000050446336 -0.058932314124 -0.551816505343 9.819965994358
68 0.682302236557 -0.002264014620 -0.001177687025 0.002713546329 -0.068891241574 -0.562533684187 9.810415152311
69 0.693844795227 0.001394665084 -0.001832329211 -0.001405999253 -0.072862437470 -0.522278381847 9.819844372272
70 0.704608201981 -0.001957476977 -0.001644887533 -0.002100279497 -0.061119437730 -0.548701474294 9.815070705414
71 0.713377237320 -0.000046919753 -0.008230870215 0.002507545878 -0.062835275754 -0.547664470598 9.806150193214
72 0.722079515457 -0.001704625045 -0.002637164061 0.000842303627 -0.056291743512 -0.563443547487 9.806704509258
73 0.737222909927 0.002664555088 -0.004130835149 -0.001194540751 -0.067387100165 -0.561648452282 9.824466011524
74 0.742486476898 0.000008837468 0.003071885577 0.002481826087 -0.073513287390 -0.584855027944 9.816236640215
75 0.751974821091 0.000168387316 -0.004336934429 -0.001389912095 -0.067513792883 -0.559887746014 9.812536522150
76 0.773072957993 -0.001391272804 0.002159519877 -0.003199411722 -0.069376697517 -0.567757952102 9.813956226110
77 0.776900768280 -0.000528160858 0.003589047014 -0.000458304796 -0.073734951681 -0.547573254034 9.812297955751
78 0.781507015228 -0.000207203474 -0.001770402133 -0.001063163686 -0.078653830485 -0.527567298040 9.815209869146
79 0.796178817749 0.000443351563 -0.002763063441 0.001209512060 -0.060941805714 -0.536620249674 9.825338416100
80 0.803768634796 0.001379498589 -0.003360271073 0.001530625439 -0.039034458529 -0.554418845214 9.815663613081
81 0.811948537827 0.003583063484 -0.003066876286 0.000987812807 -0.041238529924 -0.550750959925 9.831204342842
82 0.821815967560 -0.001473466174 0.004689641507 -0.001590046441 -0.061511233156 -0.567814158462 9.827210694551
83 0.843385934830 0.000171405674 -0.000303321239 0.002078577725 -0.068578008972 -0.563200851493 9.819780052900
84 0.846554756165 -0.000233921592 -0.004642724619 -0.000600560056 -0.077508808617 -0.551634656936 9.807678655386
85 0.852442741394 -0.000582055052 -0.001828566846 0.003632598280 -0.065644776081 -0.541605183743 9.802050710320
86 0.865285158157 -0.001312693167 0.002171128165 0.001746734330 -0.068972088466 -0.548168683313 9.818391923904
87 0.876470565796 -0.002826293751 0.001331867147 0.001747969032 -0.094001656948 -0.559926995449 9.820682862997
88 0.881595849991 0.000405976054 -0.002073170780 0.000802544115 -0.071390181659 -0.561095415317 9.813470907211
89 0.894368410110 -0.003454671551 0.003378597991 -0.000615111084 -0.065484909550 -0.561198655218 9.816837733984
90 0.904170513153 -0.004175338287 0.005532851883 0.002044886137 -0.066433917219 -0.565715848580 9.801899852157
91 0.912041902542 0.001693088798 -0.000667573797 0.002385624855 -0.058902041079 -0.553634368144 9.812020797729
92 0.922316074371 0.003568222603 0.001912613895 0.001045296254 -0.090084196050 -0.569150174148 9.808479723930
93 0.938578605652 -0.004932356911 0.000021367316 -0.004145351457 -0.068290627459 -0.565099734776 9.816634250879
94 0.943515300751 -0.001943008522 -0.003525433094 -0.000091139317 -0.040618789019 -0.545417349078 9.837091319561
95 0.951573371887 -0.000408950524 -0.000709690298 0.001382309343 -0.052031320576 -0.538213725574 9.826091537476
96 0.964579343796 0.001130158832 0.002820772113 0.002214849910 -0.050238239919 -0.539923049435 9.808456335068
97 0.973372459412 -0.001780339053 -0.000087950277 -0.003703755396 -0.077654139334 -0.551730697453 9.812895541191
98 0.981698513031 -0.005643588930 0.002797135518 0.000118878373 -0.084489251208 -0.558129342087 9.809687173963
99 0.995444059372 -0.004587112926 -0.003072694408 -0.000649893815 -0.069673722368 -0.560651173107 9.812569266558
100 1.004590511322 -0.001051946225 0.004138457927 -0.000007134005 -0.071884349040 -0.553649972901 9.827300741673
101 1.013763427734 -0.005588462536 0.002966770297 -0.001392372658 -0.074077132568 -0.554901057780 9.839154217243
102 1.022350072861 -0.001842077837 -0.001175555586 0.005612100691 -0.060043582027 -0.546194517128 9.816532509327
103 1.034121036530 0.002282277039 -0.000086263712 -0.000513839995 -0.061273068753 -0.550716095902 9.796903991103
104 1.043597221375 0.004987487466 -0.002069004389 -0.001986608162 -0.056706032446 -0.538003664352 9.801968264580
105 1.052672147751 0.002557185744 -0.001914332987 -0.000505299317 -0.040005032374 -0.545560788587 9.823631029129
106 1.065195560455 -0.005509127383 0.001073111659 -0.000676593175 -0.054101262325 -0.541797337867 9.828623381853
107 1.079033613205 0.000971003228 -0.003705204530 0.004614900307 -0.066722897580 -0.535237967893 9.831716558933
108 1.081645965576 0.001770642962 0.001446273192 -0.001493980316 -0.071531615756 -0.545181998648 9.813662695885
109 1.096239566803 -0.007458754276 0.001395376647 -0.002215667323 -0.082141228672 -0.554192667603 9.833124568462
110 1.109662771225 0.004915953503 -0.004695890573 0.001919288313 -0.078299498353 -0.543497379273 9.821879203320
111 1.112532854080 -0.002479486719 0.003823633795 0.002264000056 -0.069983871477 -0.559565491341 9.793197441101
112 1.121465444565 -0.000283792584 -0.002528250135 -0.000051094121 -0.068076655911 -0.572205344327 9.800832150578
113 1.136969327927 0.000549090957 -0.003310332382 -0.000413447664 -0.072663650410 -0.552499058135 9.801231515408
114 1.143735885620 -0.003036143303 -0.001454503765 0.001198211570 -0.054273435418 -0.551949639134 9.797518533468
115 1.153203725815 -0.000871257247 0.000005008164 0.001791269847 -0.056861353680 -0.548641759604 9.799014251232
116 1.164582252502 -0.000698460614 0.000887294925 -0.001965628876 -0.088174888277 -0.556268063709 9.810610449314
117 1.177037477493 -0.001961743366 0.001916694852 -0.002189422703 -0.077611217117 -0.581808190048 9.817242361307
118 1.182378768921 -0.000932093768 0.001858349257 0.002376556583 -0.068787490041 -0.556655953377 9.804053966403
119 1.195265054703 -0.000318871213 -0.003367390088 -0.000687387820 -0.065236530793 -0.547060599402 9.805605232716
120 1.203477859497 0.000309602262 -0.003520644345 -0.001841810351 -0.063392122546 -0.539117741659 9.807131356001
121 1.213287830353 0.000430034522 0.000064254580 0.003433968595 -0.074178453851 -0.537970408313 9.818842159510
122 1.223503112793 -0.003011182929 -0.000723057859 -0.003580701489 -0.079795243526 -0.561364898868 9.828554384708
123 1.234281063080 -0.000178501412 0.002737767832 0.000075815031 -0.062950470471 -0.550344980434 9.854732369184
124 1.244876384735 -0.000122689128 -0.005768814198 -0.000715389372 -0.084989535324 -0.550216962956 9.825631946325
125 1.253257513046 -0.003194518164 -0.000691307140 0.001943573143 -0.071814968172 -0.562382643297 9.809492461681
126 1.268047809601 -0.002468716781 0.002431243192 -0.003842891259 -0.055560809579 -0.538068495356 9.804236984253
127 1.273535490036 0.000717266329 -0.004869342983 -0.001339896422 -0.077176220817 -0.551670617312 9.814436867237
128 1.282464265823 -0.000198991546 -0.002168764219 -0.001162665912 -0.069584237128 -0.565058073364 9.831776200533
129 1.294887781143 0.000789411336 -0.000306692973 0.001184863906 -0.050766887600 -0.552857602090 9.810203483105
130 1.303559303284 -0.001790307702 0.001972644641 -0.000141711525 -0.043808499975 -0.568220868856 9.813834604025
131 1.313882827759 -0.000170750677 -0.000467217674 0.000613807462 -0.055638495320 -0.553644966222 9.814646197557
132 1.322215795517 -0.000918087855 0.004813493582 0.001660536466 -0.067779210792 -0.526474161074 9.821009137630
133 1.332615852356 0.000178257641 -0.002468216658 -0.000415127029 -0.089283593455 -0.538638014160 9.817721832991
134 1.344974756241 -0.004528528063 0.003039862365 -0.001255352890 -0.070987061821 -0.545427289344 9.826903131008
135 1.352571487427 -0.000890745461 0.004456717381 0.000538365817 -0.061776715019 -0.558540437892 9.815539652109
136 1.366794109344 -0.000558228018 -0.002633959165 0.002343837932 -0.065635087062 -0.558677262738 9.815689340830
137 1.378128767014 -0.000182565447 0.002501644271 -0.005011540701 -0.054172822195 -0.537738493122 9.839169420004
138 1.381973266602 -0.001693365388 -0.005645888507 0.000436826558 -0.074367117919 -0.557689448744 9.806724389791
139 1.392527103424 -0.002629464300 -0.004083171067 -0.001499809232 -0.064774431735 -0.558241462447 9.798407310247
140 1.406311988831 -0.000207943906 -0.001732494220 -0.002267896750 -0.048869936639 -0.556905592941 9.800674275756
141 1.413003444672 -0.000287355277 -0.001498021351 0.000982691423 -0.069417947796 -0.560821473263 9.814917508364
142 1.422209978104 -0.001857143293 -0.003007483112 -0.000763584526 -0.044950018083 -0.563308038265 9.820830212831
143 1.435093402863 -0.003645069884 0.001417481794 -0.001877833376 -0.065158972959 -0.565556804314 9.821813714504
144 1.444131612778 0.000598223678 -0.002701308272 0.000196719716 -0.081371725956 -0.560128285848 9.822308388948
145 1.452270984650 -0.000309000580 -0.002629628407 -0.002712319819 -0.044492637911 -0.534875330888 9.813211290836
146 1.465362071991 0.000798646836 -0.003460022321 -0.002817436660 -0.045126937469 -0.534223695248 9.810599924326
147 1.476454257965 -0.002721421380 0.006720457882 -0.001347817765 -0.060319634560 -0.544905388802 9.814808750153
148 1.482441663742 -0.000866226629 0.000509414668 0.000886804035 -0.060488952566 -0.561962338127 9.818122951984
149 1.494382381439 -0.002578340190 -0.000190429314 0.001284173417 -0.053981207111 -0.541289214827 9.824034487009
150 1.508437395096 -0.000295598300 0.002390924389 -0.000715074747 -0.068505878085 -0.545417824164 9.831605461836
151 1.512826442719 -0.000020427548 -0.001178432268 0.000701499323 -0.079538559895 -0.544917375594 9.800038098693
152 1.522217273712 -0.000938038482 -0.000006904342 -0.001914628561 -0.053644654169 -0.545337096043 9.809976611137
153 1.541058301926 -0.002433196610 0.000947767017 -0.001128446763 -0.059255423038 -0.555033826120 9.830726040602
154 1.545248746872 -0.002877717467 0.000033351994 0.000336357831 -0.063394406615 -0.575673620291 9.834924341440
155 1.552348375320 -0.000184288309 0.002204765008 -0.000034703261 -0.067618357544 -0.551701973006 9.838350809813
156 1.564814329147 -0.001214548269 0.000154762689 -0.003065053165 -0.062380759805 -0.564524624571 9.808568601608
157 1.576929807663 0.000395472335 0.000023130531 -0.001045123695 -0.059253540966 -0.565816566870 9.818346315622
158 1.581470489502 -0.002669016924 0.000284535356 -0.000938290754 -0.072882578387 -0.555776312873 9.815871773958
159 1.591551542282 0.000598165161 -0.003685830553 -0.000844982978 -0.067298464598 -0.558307864890 9.785631728768
160 1.605917930603 -0.001836140991 0.004313470003 0.000883844714 -0.038719147425 -0.576819966920 9.802761147022
161 1.613021373749 -0.000094846912 -0.001068568875 0.000968853193 -0.056848814143 -0.542491694726 9.804670262933
162 1.621069431305 -0.000848491901 -0.000779033916 -0.000126724872 -0.068632159671 -0.553790342622 9.802632508278
163 1.635889053345 0.000336056372 0.003254964118 0.001334231223 -0.073886924470 -0.566108306386 9.812751699686
164 1.642061233521 -0.003625444676 0.004561356725 -0.002010662826 -0.054606438917 -0.554076636918 9.817034200430
165 1.651437520981 0.002958837770 -0.003205985361 0.002497639387 -0.059203227502 -0.547516572587 9.817723002434
166 1.667110443115 -0.002548390290 -0.001294035435 -0.000123823377 -0.057311685216 -0.559164079987 9.810666582584
167 1.674256086349 0.003056053813 0.000431490678 0.000745261574 -0.062757900646 -0.560269642286 9.809847387671
168 1.681293725967 0.001315141377 -0.001096345529 -0.002845730666 -0.074524133932 -0.553068284579 9.813686084747
169 1.691496849060 -0.000025334448 -0.002301828907 0.001204723571 -0.074887209479 -0.545378026552 9.826601414680
170 1.706587791443 -0.002318973267 -0.004284734651 0.001754526156 -0.059094702266 -0.563248579390 9.814973641634
171 1.711909294128 -0.003191392851 0.006319357734 -0.000847984041 -0.062099956409 -0.553994446993 9.817024844885
172 1.720887660980 -0.002144893297 -0.000162107301 -0.000268413397 -0.055733640483 -0.547381867357 9.805642654896
173 1.735064744949 0.000560604512 -0.003560700473 -0.001167778973 -0.066973487316 -0.544391455092 9.804992444515
174 1.744314193726 -0.002087905421 -0.000118680627 -0.001930170733 -0.045659860927 -0.526305066906 9.813948040009
175 1.750968933105 -0.000717685698 -0.003018308446 0.000764757591 -0.043865674781 -0.523338482045 9.820610357523
176 1.775672197342 0.002656016068 0.001998297332 0.004277128257 -0.057207554528 -0.540522608310 9.832122355700
177 1.777317523956 0.002638635821 -0.007129387828 -0.001137987329 -0.052595773316 -0.552171577513 9.814883594513
178 1.781176090240 -0.001816581581 -0.000594033295 -0.000354567065 -0.050542148952 -0.538786423802 9.801847227216
179 1.791002750397 0.000028903803 0.003912718614 -0.001354153436 -0.061055378742 -0.561832420304 9.805829765797
180 1.806122303009 -0.000235338217 -0.002862046949 0.001524322148 -0.079251717422 -0.545701706484 9.801921486855
181 1.811737775803 0.003303415445 0.000101517054 0.000832100391 -0.050869017444 -0.545062094182 9.808568016887
182 1.821166992188 0.000262443375 -0.001406892868 -0.002657419949 -0.058397102030 -0.536754845269 9.816236640215
183 1.836699724197 -0.000946570350 -0.004335951348 -0.001163201665 -0.077240275238 -0.533837961741 9.799677325487
184 1.845340013504 0.000587180662 -0.001589947092 -0.001244704147 -0.094206565311 -0.548708198592 9.837311174870
185 1.851177215576 -0.002534960832 -0.006447143694 -0.003316557781 -0.097759324405 -0.543038117029 9.816750025749
186 1.864528656006 -0.000781610212 0.003475588029 -0.000990868550 -0.090945326462 -0.552511629649 9.789268112183
187 1.875906705856 -0.002428919167 -0.000116080827 -0.000732928395 -0.068860762962 -0.551790960319 9.789654028416
188 1.881284475327 -0.000206681830 0.000956292188 0.000814478600 -0.058394749439 -0.556803083941 9.804175588489
189 1.891646385193 -0.000285726854 -0.001466600212 -0.001900657238 -0.063139143675 -0.556360705532 9.819191823006
190 1.906911373138 0.000441163168 0.000962458551 -0.001156879778 -0.067188482126 -0.541944139525 9.834748924971
191 1.912543296814 -0.000369541494 -0.004889264676 0.000145553831 -0.067646241453 -0.555096464418 9.838008162975
192 1.920964956284 -0.001331372876 -0.006367375777 0.003476247317 -0.063925543930 -0.532995341420 9.822728219032
193 1.934093236923 0.002747341428 -0.004406493908 0.000633428184 -0.048986963178 -0.520709427707 9.819016406536
194 1.945150852203 0.000518917166 0.001660263648 -0.000177863157 -0.037092685006 -0.561110471897 9.830395088196
195 1.950807094574 -0.001294354286 0.000863261782 0.001634512388 -0.050347272218 -0.553432712294 9.797706813812
196 1.963043928146 0.000118228439 -0.001294090181 0.002505458521 -0.089467671113 -0.542998429053 9.801552527547
197 1.976341009140 0.002473847787 0.000483709507 -0.003125430199 -0.071347350804 -0.556266236454 9.819432728291
198 1.981421232224 -0.000949712048 0.002344993443 0.002113717538 -0.074586461596 -0.584701867439 9.829136767387
199 1.991544008255 -0.002743571390 0.002117524766 -0.001703308939 -0.054902586685 -0.558958221450 9.814601758718
200 2.002254247665 -0.001384324008 0.005152443248 -0.001056662478 -0.053551984937 -0.548607407212 9.811280540228
201 2.013231039047 -0.001463373339 -0.000583830905 -0.000318775604 -0.075647123675 -0.559518275075 9.818940392733
202 2.021354198456 -0.000503081500 0.002367208731 -0.001557734416 -0.076448023198 -0.557280362919 9.822310727835
203 2.034952640533 -0.001603755738 -0.003353075077 -0.004382005309 -0.084437009990 -0.554846971035 9.809521113038
204 2.041907072067 -0.001195992616 0.002042852225 -0.001177057775 -0.077458385518 -0.555544288047 9.808846929073
205 2.051077842712 -0.004899624477 -0.004005628086 -0.001938670092 -0.061770465807 -0.536154226586 9.813070957661
206 2.063634157181 0.000344204858 -0.003503971241 -0.000917899366 -0.067269890900 -0.561335151158 9.798308492303
207 2.077574253082 0.001630472004 0.002496642262 -0.000994572398 -0.086638276549 -0.559637339003 9.794269235730
208 2.081135511398 -0.002081580673 0.003548739915 -0.002529084713 -0.075699547618 -0.550851934031 9.793772807121
209 2.091082096100 -0.004233517173 0.001234385178 -0.001994932231 -0.054542009910 -0.547693377770 9.800266140103
210 2.104430913925 -0.002012912859 -0.000878584321 -0.000104472832 -0.063227719855 -0.547247491032 9.823704704046
211 2.112227439880 -0.004261532380 0.001238734271 -0.000060498632 -0.080794532681 -0.545699550323 9.803645246029
212 2.121374368668 -0.002356672080 0.003449932737 -0.000712172578 -0.072062629731 -0.543590021096 9.807903773189
213 2.135756492615 -0.001630841959 -0.002309417876 -0.003722695829 -0.064665664388 -0.543476585113 9.826119604111
214 2.145607709885 0.002157873737 -0.002715434989 0.002344767698 -0.074249840132 -0.548746826760 9.820734318495
215 2.151300430298 0.000924647125 0.001721198022 -0.000331666058 -0.060335065727 -0.567918750532 9.804388427138
216 2.164206981659 0.000674981104 0.002002266197 -0.003302554339 -0.064885026338 -0.568756327629 9.811012737751
217 2.170929908752 0.000509279722 0.001853266365 0.001232387027 -0.081676694797 -0.534050325304 9.799935772419
218 2.181168317795 -0.003276905549 0.003353841256 0.003354508867 -0.086806365727 -0.544023592137 9.809079063535
219 2.191810369492 0.000854793047 -0.002711877953 0.003227973605 -0.069679861944 -0.551828967221 9.797210969925
220 2.203606367111 0.001524928381 -0.002558461669 0.000886158335 -0.071947288834 -0.544299471080 9.819715733528
221 2.211866378784 -0.000108181427 0.001321345060 0.001258823582 -0.062447701287 -0.543518209979 9.838398756981
222 2.221484661102 0.000290283161 -0.000797417334 0.002942661407 -0.062684495249 -0.539431554414 9.836498411894
223 2.234370231628 0.001361996497 0.001810909750 -0.001969663539 -0.065134131429 -0.531436619908 9.827996560335
224 2.243677854538 -0.003655045555 0.004365240918 0.000956492121 -0.082861404642 -0.556249864250 9.827006042004
225 2.250844240189 0.002135539074 0.000931720366 -0.000835304377 -0.059340120871 -0.541452425234 9.859694316387
226 2.263044357300 0.002488104021 0.005065966975 0.001375931930 -0.047217435837 -0.535316320583 9.823591268063
227 2.276071786880 0.000584706380 -0.006250774054 0.003154023291 -0.075969268712 -0.538376131989 9.811169443130
228 2.281399488449 0.002340453585 -0.000033847117 0.000673504727 -0.058378610210 -0.544781172015 9.807410852909
229 2.291199445724 -0.002794676255 0.004123708852 -0.002070169782 -0.070815729266 -0.534729406312 9.812344733477
230 2.303905725479 0.001011838928 0.001614726064 -0.001987590072 -0.072118004691 -0.557786549069 9.798026656508
231 2.313683509827 -0.000347354716 -0.003263304442 -0.002150145758 -0.088426601775 -0.553860289939 9.814825122356
232 2.321236371994 0.004357631403 0.002438289905 -0.003052503278 -0.059408862200 -0.544641752467 9.809546840787
233 2.336682081223 -0.000310120330 0.000602074143 0.001894937944 -0.071298860027 -0.548018884957 9.817982618809
234 2.344135522842 -0.002554556393 -0.000924820269 -0.004190123772 -0.079042094741 -0.577894210070 9.822652205229
235 2.351230859756 -0.000534688171 0.002430458547 0.000834194900 -0.062768078456 -0.568411634266 9.831107279062
236 2.363876104355 0.002678901568 0.005497553555 0.004780706012 -0.041470358321 -0.550503805429 9.821123743057
237 2.377350330353 -0.000605953867 -0.004348800840 0.000141443990 -0.069381580856 -0.563646957502 9.816724298000
238 2.380855321884 0.000629004710 -0.007003733958 -0.000950513207 -0.070986449691 -0.550651593804 9.808255190849
239 2.391762256622 0.000453486855 0.003373482849 -0.001754872315 -0.064067197298 -0.569588203691 9.799510679841
240 2.406084775925 0.000686229254 0.001476186941 -0.003506112172 -0.072068422129 -0.547321202494 9.824206395149
241 2.413625240326 -0.004188404681 0.002892921932 -0.001588768695 -0.072911736807 -0.544773387909 9.818122951984
242 2.420665979385 0.001402224534 0.000080110524 -0.000705676441 -0.065523259062 -0.547016050927 9.818774331808
243 2.433917522430 -0.001376519828 0.000387291762 -0.002872952385 -0.067262248406 -0.530732322782 9.813894245625
244 2.445889234543 -0.003624410360 0.000095600729 -0.000893163502 -0.062973923287 -0.546803723909 9.812628908157
245 2.451293706894 0.000392436097 -0.003643959367 0.000524973094 -0.083081497494 -0.546783697195 9.812528336048
246 2.461025238037 0.001556174230 0.004292899944 -0.000008941801 -0.088513743561 -0.545930405706 9.819119317532
247 2.472060918808 0.003245749165 -0.003062525242 -0.000614898018 -0.086959690684 -0.560021756887 9.813125921488
248 2.482390165329 0.000866012133 0.002221780370 -0.001415524995 -0.093867207533 -0.553274691291 9.814064984322
249 2.491842508316 0.000590074704 0.000523577698 -0.000633205105 -0.068596765744 -0.562497431450 9.808238233924
250 2.506584167480 0.000859069059 0.002101104843 -0.000286552655 -0.057880345210 -0.552089899220 9.832352735996
251 2.512274742126 -0.002763851466 0.001679621110 -0.004248421773 -0.072464890759 -0.553622162081 9.808594914079
252 2.521532297134 -0.001369337485 0.002081455318 0.002246793799 -0.067478883178 -0.546468313001 9.819777714014
253 2.534915924072 -0.001344178675 0.002199218142 -0.002202926542 -0.065021933410 -0.552757322341 9.810554316044
254 2.545537471771 -0.001246817901 0.002112524447 0.002430013820 -0.065591909029 -0.553289674781 9.826219006777
255 2.551040887833 -0.000272043986 -0.002795308496 -0.000510766892 -0.060484114909 -0.558043095656 9.830425493717
256 2.564247608185 -0.003277295140 0.002017718253 0.000854916712 -0.064040030586 -0.569228928834 9.823859070539
257 2.574428319931 0.002957100213 0.001603106723 0.001257719567 -0.078277918473 -0.570462033525 9.802457676530
258 2.584086656570 -0.000946374774 -0.002403256853 -0.000965625151 -0.064193086023 -0.553571072035 9.821182215214
259 2.590661287308 -0.001752628524 0.004974885825 0.001445114691 -0.059821757851 -0.551365063749 9.812140080929
260 2.603867530823 0.000485058317 0.000246465221 0.003836746222 -0.052403555238 -0.574058144242 9.821324887276
261 2.614758253098 0.001317100907 -0.002504295989 0.000384214758 -0.052719944422 -0.575717803314 9.848529642820
262 2.620903968811 -0.000822791681 -0.006364008335 -0.002462827398 -0.072552841105 -0.560520707108 9.852675318718
263 2.633472442627 -0.001385598372 -0.003230331959 0.001137477583 -0.071356514487 -0.560293871686 9.833288290501
264 2.643449544907 -0.002838170305 0.000294105961 -0.003403684240 -0.070521888407 -0.552736235820 9.821747056246
265 2.651262283325 -0.001019191034 0.004707788453 0.000479826304 -0.066695680618 -0.558167239353 9.821342428923
266 2.663308620453 -0.002404770746 -0.001471159965 -0.000426316272 -0.066164068216 -0.570540422760 9.808783779144
267 2.673693418503 -0.000933401552 0.001035877338 -0.001317597129 -0.073308972884 -0.564972594380 9.806714449525
268 2.681866645813 -0.003691481188 0.001541458965 -0.002836644969 -0.066544968635 -0.555030610152 9.823274348974
269 2.691570281982 0.001866892309 -0.000113526295 0.002464968590 -0.059696312235 -0.550962482952 9.804263881445
270 2.709485292435 -0.001673425619 0.000592486633 -0.002206910621 -0.072421470615 -0.545773736872 9.806399284601
271 2.713125467300 -0.001387502377 -0.004936345931 0.000944200228 -0.085607193159 -0.540018943772 9.802633092999
272 2.720518589020 0.000409436636 -0.004089048487 -0.000743537607 -0.063705240944 -0.559044175521 9.828953164816
273 2.738655567169 -0.003291286098 -0.000550399391 0.000703344030 -0.059792526341 -0.557987400927 9.816866970062
274 2.742063522339 0.001774720017 -0.000985967449 -0.000670729084 -0.081234526522 -0.536389138475 9.826661056280
275 2.750437021255 -0.004480220818 0.000897270466 -0.000113386977 -0.071819225675 -0.549871465601 9.826585042477
276 2.760632753372 -0.006666755655 0.001932836235 -0.002544585663 -0.059866365711 -0.571433219500 9.803821247220
277 2.771465301514 0.001911129001 0.000682360518 0.001868249637 -0.069739439590 -0.548609746099 9.803896676302
278 2.780869245529 -0.000005031958 0.000486334534 -0.003128866041 -0.070582311158 -0.561245871484 9.822921177149
279 2.790498971939 -0.003849282325 -0.003089593258 -0.001154603868 -0.060318090529 -0.539681522883 9.829424450397
280 2.800806760788 -0.001385365346 -0.001081334038 0.000122782471 -0.064545462993 -0.536055664457 9.818404787779
281 2.814061403275 0.001702763043 -0.003443387447 -0.004398396753 -0.077897886001 -0.573061924875 9.804025899768
282 2.821174860001 -0.003111082679 0.005440501051 -0.004001304351 -0.078548288243 -0.554885855019 9.795131115317
283 2.840654850006 0.000933706749 -0.001171448102 0.002015601378 -0.057024559518 -0.536426085569 9.835877437592
284 2.842841625214 0.004005460078 -0.004400351992 0.003248588916 -0.054554005838 -0.564313211180 9.827891310453
285 2.850506544113 0.000864433352 -0.007624739952 -0.000376011851 -0.065524588390 -0.539979621246 9.823077882528
286 2.860967159271 0.002258051636 -0.000963857621 0.001225914297 -0.058969827667 -0.542635207325 9.794344664812
287 2.876876831055 -0.002208530624 -0.000670732140 -0.001654803127 -0.066692195130 -0.558896533325 9.840506093502
288 2.880408763885 -0.001613480568 0.000016522006 0.001872961403 -0.066592427013 -0.532752645425 9.821058254242
289 2.890741825104 0.003118188950 0.002492904994 0.000888858297 -0.064943863945 -0.536313234307 9.809902936220
290 2.902639150620 0.001203177820 -0.003921723688 -0.000885244824 -0.063529733112 -0.534484115615 9.823894153833
291 2.912199020386 0.002369109875 -0.000535163229 0.001145715828 -0.050613293122 -0.542494325973 9.823634537458
292 2.920148372650 0.000743574862 -0.003856531897 0.000772639793 -0.072586604208 -0.553942406774 9.834844819307
293 2.934385299683 0.001674697643 0.000595979952 -0.000045008516 -0.069288642104 -0.547901173197 9.829629102945
294 2.943236589432 -0.003186334405 0.005025841147 -0.003635744139 -0.075464311391 -0.536537548117 9.810958943367
295 2.950298547745 0.001563898828 0.003989420774 0.002136019041 -0.078654671023 -0.552781697921 9.816750025749
296 2.960059642792 0.001316893888 0.000627217999 -0.000122597371 -0.081197122615 -0.565860713348 9.826607261896
297 2.976720333099 -0.001100137152 0.002444645082 0.001173443652 -0.050184673942 -0.563949770182 9.830238382816
298 2.980835914612 -0.001097850319 -0.004391856404 0.000311865786 -0.048404649021 -0.555917998217 9.825579321384
299 2.990791797638 -0.000548701885 0.001502183711 -0.000182758113 -0.069876565933 -0.566462501474 9.816145423651
300 3.004267692566 -0.001722930637 -0.000301118507 -0.000666063351 -0.069311967012 -0.565862686783 9.827547494173
301 3.010351896286 0.000981100158 0.004710499988 -0.000981432663 -0.060956647592 -0.567406059355 9.804749785066
302 3.020814657211 -0.001205555419 -0.004307003255 0.001561968556 -0.070515680308 -0.563239041120 9.835028421879
303 3.032906532288 -0.004502161208 0.000532092141 -0.001782364642 -0.079697750341 -0.538319742903 9.847824468613
304 3.045457839966 -0.000840678748 0.002046617321 0.001351638257 -0.042800019728 -0.551227471456 9.811755334139
305 3.049976587296 0.000930591904 0.000418381047 0.003613034709 -0.057195882937 -0.545914545134 9.808637598753
306 3.060273647308 0.001003460373 -0.002346465984 -0.003372620443 -0.063206893718 -0.555820970982 9.805894085169
307 3.078279733658 -0.000896398567 0.000405716825 0.000191272930 -0.058436821983 -0.560906586796 9.824495247602
308 3.081524133682 0.000468441778 -0.004806571964 -0.002706688690 -0.079193921350 -0.554176697396 9.845822381973
309 3.090009689331 -0.001250253223 0.000018592374 0.001194022813 -0.079111128431 -0.556146185808 9.828226940632
310 3.103072881699 0.000601338978 0.000492188060 0.000287141040 -0.086325560147 -0.573008459397 9.823987709284
311 3.112644910812 -0.001618853573 0.003645757261 0.001263502189 -0.084497720534 -0.571841355152 9.821726006269
312 3.120349645615 -0.000524745334 -0.003221462384 -0.002994611253 -0.069266276504 -0.573817567863 9.805374267697
313 3.134794473648 -0.001531996421 0.002997580262 0.000115887307 -0.050833554994 -0.565631575584 9.801708063483
314 3.145042419434 -0.002183096395 -0.000673334379 -0.000124586744 -0.053939568540 -0.559460899271 9.812886185646
315 3.150481224060 -0.002768630852 0.000177009447 -0.003060291984 -0.065866307896 -0.562418859489 9.819258481264
316 3.160570383072 -0.000482987865 0.006008087778 0.002553386578 -0.091293875333 -0.530662338920 9.801803957820
317 3.172897815704 -0.001908546073 0.003916000752 0.001307552928 -0.080259722583 -0.534326423518 9.816324348450
318 3.181732416153 -0.000634190917 0.002624925743 -0.001467067305 -0.073194796862 -0.575267969705 9.826725375652
319 3.190556526184 0.002697826137 -0.002382273537 0.000328428490 -0.062332894863 -0.544479674958 9.829247864485
320 3.204408407211 -0.001004431621 0.000429991187 -0.001039812652 -0.037640224218 -0.532349954993 9.824986413717
321 3.212356090546 -0.002288973433 0.000999904702 0.000326914402 -0.072920886786 -0.553087324575 9.826559314728
322 3.220198392868 -0.001336811420 -0.002438117476 0.001178509640 -0.084164356152 -0.551808209606 9.824773575068
323 3.237890481949 -0.000977591691 0.003244905224 -0.004776360170 -0.066203267402 -0.572380249165 9.841425275803
324 3.246177673340 -0.000563213383 0.000878679898 0.002137763490 -0.041466452563 -0.562802985013 9.819373086691
325 3.250495433807 0.000784730584 -0.001457374595 0.001281045763 -0.043559317226 -0.539518422112 9.808468614221
326 3.260036468506 -0.000092010923 0.001474580332 -0.000039698915 -0.061840385715 -0.542185117900 9.829598697424
327 3.272814989090 0.000876997022 -0.004999437362 -0.001247213734 -0.067895405930 -0.544611712396 9.812501438856
328 3.281418561935 0.002430410694 -0.000890315428 -0.000480042979 -0.069742043428 -0.560633229464 9.807081654668
329 3.290175914764 -0.000595021513 -0.002764524538 0.000455681914 -0.072067490229 -0.571746264808 9.805672475696
330 3.302164793015 -0.000961751994 -0.000401145921 0.001321641675 -0.040839900565 -0.565341005512 9.841322364807
331 3.312123298645 0.000267914396 0.001872589887 -0.002152806579 -0.058680696557 -0.544145798944 9.832987743616
332 3.320441246033 -0.000375252271 0.003472428126 0.005269832476 -0.060992096337 -0.556381536238 9.793634812832
333 3.333777904510 -0.000833318254 0.000366246873 -0.002818037951 -0.032462941878 -0.554293605164 9.803549936414
334 3.344969987869 0.000268806304 -0.001933915153 -0.000774144714 -0.075782112130 -0.545901717804 9.841025326252
335 3.350351810455 0.001108775391 -0.000542673135 -0.002010425768 -0.091844929727 -0.550226208866 9.809916969538
336 3.360639572144 0.002037606396 -0.001744214990 0.002284646577 -0.061413982082 -0.545093705691 9.807547093034
337 3.373538255692 -0.000061422777 -0.000198528825 -0.000562317687 -0.059603455709 -0.564768014923 9.807882138491
338 3.385137319565 0.000324290090 0.000058365953 0.002043278617 -0.086168973539 -0.550049951859 9.814776005745
339 3.389943599701 -0.000458061757 0.001614798494 -0.000773717281 -0.069001297136 -0.565190512799 9.811707386971
340 3.403115034103 -0.000593024207 -0.001324922902 0.001471145791 -0.054554960579 -0.549247019514 9.807852902412
341 3.412235975266 -0.001790956328 -0.000688484423 -0.001688567276 -0.074287545537 -0.556896566302 9.823647401333
342 3.421038627625 0.000403769486 -0.004349284578 0.000817047354 -0.081160193793 -0.547380880639 9.831248781681
343 3.432324171066 -0.002818352641 -0.002448038531 -0.002198773415 -0.077317833072 -0.555298741534 9.833992295265
344 3.444172143936 0.000054946520 -0.000481037991 0.001632773531 -0.079036512477 -0.534160983860 9.827278522253
345 3.451368808746 0.000411099291 -0.000047178616 0.000216400434 -0.063897938677 -0.539353165179 9.813586682081
346 3.461220502853 -0.001024528669 0.001479901713 -0.000580126016 -0.078355942257 -0.551142577194 9.809036378860
347 3.473123788834 0.002176456958 0.002209215139 -0.001440896026 -0.086011427622 -0.550523759052 9.816565253735
348 3.481038331985 -0.003034048404 -0.000501408020 -0.000181358588 -0.069373732796 -0.556554686911 9.791519290209
349 3.490754127502 0.000572489454 -0.001552519016 -0.002128186643 -0.083173371870 -0.563820510171 9.823826326132
350 3.509893655777 -0.001793686458 -0.000411490020 -0.003072097798 -0.043986282740 -0.550448147245 9.820829043388
351 3.511749505997 0.003332650400 -0.006651266149 -0.000792327225 -0.055245932448 -0.554394688904 9.806292280555
352 3.520448923111 -0.001448913597 0.002194665801 0.003906170203 -0.072411379600 -0.538116369434 9.818987170458
353 3.533949375153 -0.001868034425 -0.000310297538 0.000214193557 -0.047907183445 -0.533665176518 9.796826807857
354 3.541817665100 0.001319605423 0.002378442902 0.002482175627 -0.059549346124 -0.540585356243 9.810102910995
355 3.550999879837 -0.001375938692 -0.004990260899 0.000148533681 -0.075774771133 -0.540577425957 9.823552676439
356 3.560778141022 -0.002059445618 -0.003806856661 -0.004682389594 -0.077607087521 -0.529407562986 9.847138005495
357 3.576163530350 -0.002242353550 -0.002575506680 -0.003727745432 -0.082182835266 -0.546843594611 9.835779204369
358 3.582057476044 -0.001494977311 0.001108106220 0.002447092901 -0.057552056029 -0.549578337371 9.821107370853
359 3.589949607849 -0.002097081363 0.000498267492 -0.002496826914 -0.073595856470 -0.540671529584 9.829378842115
360 3.602541685104 -0.001084030944 -0.001387649449 -0.000566608328 -0.039442754067 -0.542636742219 9.824667155743
361 3.611195802689 0.001101478615 -0.000962200297 -0.001902855907 -0.045042404090 -0.549958954565 9.826045929193
362 3.621542930603 -0.001446778127 -0.004290403491 -0.004691640438 -0.059781571948 -0.549129600115 9.816412056684
363 3.633476257324 -0.003553200189 0.003784558408 0.001292385784 -0.063668915117 -0.559613292329 9.811733114719
364 3.644085884094 0.001011559088 -0.004882979720 -0.000998255896 -0.059536093958 -0.552229391858 9.797472340465
365 3.651147603989 -0.000237781128 0.005274768687 0.003934954449 -0.057170351618 -0.555037370995 9.810797560215
366 3.661111831665 -0.001921289195 -0.001353730425 -0.004375761445 -0.044008671180 -0.553620152101 9.809999415278
367 3.672294139862 -0.000477471949 0.001205488450 0.000505271879 -0.050284218220 -0.560653950535 9.807155914307
368 3.681432962418 -0.002612496531 0.003234632288 0.000037994136 -0.066174332821 -0.548272983022 9.832398344278
369 3.690345287323 -0.001755468536 -0.001484689421 0.001034819615 -0.063603229872 -0.530609713979 9.821707295179
370 3.704262018204 0.002534163705 -0.006665860479 0.000600264806 -0.071844587973 -0.552234544717 9.806463603973
371 3.712635993958 0.001504581986 0.003462910706 0.000235240137 -0.075488929083 -0.550558330715 9.828853762150
372 3.720356702805 -0.002754161877 0.004212763502 -0.001845201590 -0.073877244587 -0.552642972730 9.837280769348
373 3.735233068466 -0.002194367496 -0.004863025257 -0.003359177981 -0.076781250536 -0.533570853621 9.810077183247
374 3.747640848160 0.002462838061 0.001666395680 0.002276579851 -0.065985856047 -0.550166238360 9.839068847895
375 3.751333951950 -0.002286134982 0.002654685788 -0.000375981162 -0.065306432429 -0.578007682599 9.826180415154
376 3.760562419891 -0.000118633147 -0.007412486534 -0.002136761293 -0.044911572640 -0.557904041559 9.796502287388
377 3.781063795090 0.001287835263 -0.000260977092 0.000098945448 -0.059837499652 -0.561479102299 9.800193634629
378 3.783599138260 -0.000487336308 0.001194278336 0.001038092651 -0.072156980038 -0.560730877966 9.801901021600
379 3.790868997574 0.000066794978 -0.001068488968 0.001422530877 -0.064011730975 -0.553719737493 9.834952408075
380 3.803641557693 -0.002706711576 0.004799239428 -0.002027283916 -0.080097663347 -0.549867664911 9.818788365126
381 3.812245368958 0.001775384507 0.000306693526 0.003474813528 -0.061082116049 -0.556053397804 9.819238600731
382 3.820775032043 -0.000156062183 -0.001470387804 0.003848429541 -0.068856446072 -0.554389536045 9.817227158546
383 3.839298486710 -0.003956031652 0.001652748150 0.003362426309 -0.079329585889 -0.569406830370 9.806354845762
384 3.843325138092 -0.000217889522 -0.002300534777 -0.001996917638 -0.069493198721 -0.564250499792 9.817314866781
385 3.850591421127 -0.002852868926 -0.000864676716 0.001641765081 -0.070608029771 -0.549854033589 9.822886093855
386 3.862021684647 -0.004151544347 0.002167995569 0.001248129196 -0.061405348303 -0.543750271350 9.800486580133
387 3.873908519745 -0.002018191848 -0.006630745244 -0.005390184471 -0.058721339274 -0.564814829193 9.822917668819
388 3.881088256836 0.003475831459 -0.000378279731 0.000578923562 -0.050360190910 -0.574240394644 9.828646770716
389 3.890501737595 -0.002099543747 -0.004377358301 0.002638934126 -0.085530530680 -0.557871589512 9.800633345246
390 3.905369520187 -0.000925914922 0.002257638118 -0.001221062221 -0.083026579348 -0.545783677138 9.792977001071
391 3.914540529251 0.001281051355 -0.001657925449 -0.002393028650 -0.066988950460 -0.532154036723 9.814180759192
392 3.920640468597 -0.002599761732 0.002318182901 -0.003496900860 -0.068089688807 -0.565650907941 9.822329438925
393 3.932358264923 0.001280479321 -0.005035418124 -0.000086267507 -0.059147546478 -0.550412771590 9.816899714470
394 3.942593336105 -0.002745488918 0.000665467195 -0.000204274794 -0.079313816680 -0.541458966807 9.800350340009
395 3.950395584106 -0.002174334881 0.003437134740 0.003214965467 -0.069984620651 -0.555989553519 9.810457252264
396 3.959896087646 -0.000857532344 0.003716723482 0.004170627301 -0.060833824086 -0.549288644381 9.827451599836
397 3.972726106644 0.001682687516 0.002526795279 -0.000623878775 -0.045409367122 -0.564308716133 9.828106487989
398 3.980756759644 -0.007941431418 0.003112445989 0.003101715842 -0.059896698142 -0.560348323882 9.824325678349
399 3.990313768387 -0.002056772184 -0.000425818295 -0.000355271086 -0.077907917630 -0.550770877004 9.836313639879
400 4.005226373672 0.001283663541 0.000206489960 0.001385437907 -0.072020027284 -0.535527624339 9.840262849331
401 4.011129379272 -0.003156586323 -0.000239311275 0.001156680171 -0.065779878739 -0.559866330586 9.827591933012
402 4.019587993622 -0.003168471200 -0.005603330985 0.002136638278 -0.056434712503 -0.572802381590 9.818745095730
403 4.030897617340 -0.001149343605 0.004139371828 0.000246320880 -0.082673197389 -0.568689888641 9.848447781801
404 4.041471481323 0.006027069043 -0.001246233514 0.001628870336 -0.057597358245 -0.562435487509 9.818678437471
405 4.051900625229 0.000280070010 -0.003254982844 0.000401724066 -0.059776309454 -0.557586318478 9.819556689262
406 4.059798955917 -0.000112466175 -0.001941552496 -0.002073049455 -0.069518592996 -0.546417113319 9.823438071012
407 4.074025869370 0.004155088640 -0.001421961575 -0.000237392382 -0.081502575679 -0.541705902033 9.829859483242
408 4.082028865814 -0.004405416680 -0.001889202525 -0.002844162938 -0.078325043377 -0.543914943561 9.820782265663
409 4.091032266617 -0.003369984589 0.001126265779 -0.001986568500 -0.086026283205 -0.542833281755 9.807637140155
410 4.100902795792 0.002014632601 -0.002691582793 -0.001770048042 -0.074856561846 -0.541146360040 9.813525871038
411 4.111088037491 -0.001166414883 0.004616225646 -0.000220201436 -0.080998262465 -0.561700017415 9.831273339987
412 4.120085716248 -0.001128596435 0.003409893775 0.000102769012 -0.069126564595 -0.561935075484 9.819404661655
413 4.132972240448 0.000520600172 0.003317418107 0.000786180173 -0.062089687237 -0.554519563504 9.811596289873
414 4.141715049744 0.000623683069 -0.002693246488 -0.003467994379 -0.072060523820 -0.550482609272 9.811155409813
415 4.149937868118 -0.000296229078 0.001862833849 -0.000834340607 -0.094476295542 -0.545308992863 9.807160007358
416 4.161375045776 0.001016935864 -0.002282646345 -0.001622297998 -0.081640213653 -0.538513139561 9.818741587400
417 4.171777963638 0.002649947754 -0.002918836258 -0.001244852910 -0.067464027596 -0.545910305902 9.818327604532
418 4.181509733200 0.001240361036 -0.000251565035 -0.000327330391 -0.063890154571 -0.560667545311 9.805464314818
419 4.189338445663 -0.000471599341 -0.002757494729 -0.002370756926 -0.078352662334 -0.559274226911 9.809964331985
420 4.205178022385 0.000947194854 0.001287486634 -0.001421644414 -0.090714918757 -0.555438709259 9.820816179514
421 4.210857629776 -0.003824247831 -0.000460058478 -0.002338507969 -0.082683274699 -0.548573493361 9.838513362408
422 4.220197439194 -0.003988024435 -0.000501036471 -0.004337427789 -0.102223362923 -0.560064660832 9.822249916792
423 4.229390859604 -0.000599442711 -0.003353329169 -0.003819481709 -0.080300333323 -0.557090876587 9.838247898817
424 4.241096496582 -0.002119632408 0.004697926434 -0.002113728851 -0.054276870657 -0.553047307692 9.820404535532
425 4.250821113586 0.000033451483 -0.000612777177 0.002460105720 -0.055946022319 -0.547774507888 9.831438231468
426 4.259970188141 -0.001756855512 -0.000505028287 -0.000003834735 -0.063713883860 -0.566626223512 9.817027183771
427 4.273466348648 -0.001291469412 -0.003982387585 -0.001621260951 -0.061226903158 -0.560641013570 9.816226115227
428 4.280436754227 -0.000689970423 0.001996607759 0.000792996656 -0.054855151149 -0.561160757951 9.834090528488
429 4.289874076843 -0.002954895563 0.002100065716 0.001962085884 -0.070122569259 -0.576180646978 9.820664151907
430 4.306470155716 -0.002355822157 0.001556008303 0.001980467937 -0.071886939174 -0.576699879728 9.834454225302
431 4.309732437134 -0.002875812162 -0.002203197540 -0.005592769887 -0.052364168759 -0.573792278655 9.843130323887
432 4.320372104645 -0.001719661373 -0.001724359355 -0.001493049640 -0.052511943430 -0.543830999471 9.817221311331
433 4.331254482269 -0.004152464490 0.005254879763 0.001706274957 -0.072708651130 -0.531409576535 9.814312906265
434 4.340923547745 0.001079254679 0.001208295302 0.001338567702 -0.073978332896 -0.525607567169 9.816622556448
435 4.350134372711 0.004338505798 -0.004642577937 0.003454526690 -0.056111800019 -0.559261545762 9.810527418852
436 4.360193490982 0.001435654618 -0.000388697561 -0.002396953952 -0.059937884468 -0.563258885108 9.784167001247
437 4.372918128967 0.001004868416 0.001002689773 -0.001993150722 -0.059967230181 -0.578407741785 9.822686119080
438 4.380295515060 -0.000097904167 -0.001051728803 -0.000355557980 -0.088406922240 -0.562632721402 9.830197452307
439 4.389541625977 -0.000116510551 -0.003468180852 0.002086493868 -0.071004553218 -0.554431343637 9.815469485521
440 4.402381181717 -0.003677202587 0.000896557407 -0.000974439720 -0.060799284400 -0.525270840637 9.816797972918
441 4.415151119232 -0.000792121376 -0.001962879761 0.001495431661 -0.066287353104 -0.547459306419 9.809618761539
442 4.419610023499 0.000678116820 -0.005288991112 0.000803279865 -0.043746341332 -0.564114369303 9.798648215532
443 4.429258823395 0.000691136401 -0.003002212186 -0.000426674882 -0.061901224167 -0.565404301621 9.819003542662
444 4.441149950027 -0.001421988752 -0.006510549814 -0.001812066821 -0.054481733339 -0.568479790874 9.810733240843
445 4.450208425522 0.000142228667 0.009312751840 0.001833498245 -0.057564380863 -0.536479953043 9.808195549250
446 4.459520101547 -0.002363631669 -0.006503229762 -0.000366898879 -0.074288920546 -0.504705671556 9.815961821079
447 4.473821640015 -0.001132728236 -0.001215117702 0.002271774978 -0.063541043820 -0.541397753768 9.815175955296
448 4.480470180511 -0.000288187352 -0.004716055695 -0.003693224206 -0.061101946332 -0.594241453595 9.803713658452
449 4.489670515060 -0.001483892423 0.005175225239 0.002190744661 -0.085946678845 -0.589987092577 9.810529757738
450 4.502275943756 -0.000865511165 0.001255791376 -0.000142122313 -0.045344294007 -0.549154341146 9.830575182438
451 4.517719745636 -0.002958961825 0.004699242931 0.001620934818 -0.060974344555 -0.545289697051 9.814110592604
452 4.519841670990 0.000536920714 -0.003543419834 -0.002891214284 -0.069918844043 -0.534707150348 9.822468602657
453 4.529679775238 -0.000828384319 -0.002149117814 -0.002374302779 -0.062529694783 -0.559116059728 9.800792389512
454 4.543552637100 0.001461850344 -0.001550248957 0.000993141925 -0.063727026391 -0.548428920954 9.821664025784
455 4.550250530243 -0.000792612461 0.006898755997 -0.001602067726 -0.073709388385 -0.559455198236 9.827002533674
456 4.559617996216 0.000004832304 0.000059695965 0.003542691886 -0.084400254758 -0.532641438693 9.831909517050
457 4.573199987411 -0.002725268920 0.003159809424 0.000436556991 -0.058049503332 -0.563826320842 9.804048119187
458 4.581116199493 -0.002441285181 -0.006662115929 -0.004128321530 -0.062935528094 -0.561797337011 9.820653626919
459 4.589762210846 -0.003714011427 0.003522922336 -0.001911012228 -0.064632440326 -0.558466799520 9.802692734599
460 4.603175401688 0.001000312174 0.002486483758 0.000062771494 -0.084542022329 -0.561191309653 9.798201488256
461 4.611169338226 0.000445227804 -0.005056007168 0.003507637248 -0.096217267457 -0.576451738514 9.805409350991
462 4.621148824692 0.001108938978 -0.004452697672 -0.001263238344 -0.093965038760 -0.556176554784 9.834039072990
463 4.629613161087 -0.004970812541 0.003550769535 -0.002561045507 -0.073928827993 -0.567638815083 9.828616365194
464 4.641553878784 -0.003634298646 0.002881667736 0.002663080207 -0.075109686898 -0.568508551866 9.827572052479
465 4.649716615677 0.001639673303 0.003169212932 0.000527245916 -0.062100061476 -0.557961709723 9.830904965401
466 4.660459518433 -0.001240284834 -0.003319708321 -0.000094128570 -0.064580290471 -0.549785840437 9.805411689878
467 4.679365158081 0.000375241771 0.001459423461 -0.000930047243 -0.056539976089 -0.553055749610 9.827901835442
468 4.682441711426 -0.001348612943 0.002652507405 0.005913395757 -0.069943863731 -0.547882315926 9.833159651756
469 4.689089775085 0.003581291077 0.000196851963 0.001867262525 -0.080779942051 -0.559375420287 9.838315726519
470 4.704274177551 -0.000780374664 0.001035332677 -0.000023058687 -0.069237538353 -0.554229907058 9.825783973932
471 4.715904235840 0.000712215945 -0.003703224584 -0.001766805826 -0.074189915308 -0.549268069491 9.814961947203
472 4.720319271088 -0.000909569121 0.001065250977 0.001748837291 -0.074343491513 -0.557973659970 9.807017335296
473 4.729210376740 -0.003775631097 0.005343880318 -0.001851635959 -0.063666430051 -0.551859518923 9.809615253210
474 4.744784116745 -0.003476023133 0.001109688772 -0.000350033092 -0.051577083282 -0.564924829938 9.816290434599
475 4.750853776932 -0.002744692571 0.000408053008 -0.002466287947 -0.062776415306 -0.575421239845 9.818446887732
476 4.760742187500 -0.004206493110 0.004470365041 -0.000262409126 -0.065417278279 -0.538522348925 9.813688423634
477 4.771987915039 0.001905584086 -0.004408964614 -0.001134522099 -0.058030221225 -0.544041206874 9.795588367581
478 4.783246517181 -0.003557691673 0.005898097665 0.001015161312 -0.046041378044 -0.563354633264 9.825931323767
479 4.789634466171 -0.003829811341 0.001313832553 -0.002342792434 -0.057564458521 -0.552596341185 9.827059836388
480 4.802762985229 -0.001395006691 -0.004762772847 -0.002197356530 -0.063307433850 -0.547319704145 9.809647412896
481 4.813686132431 0.002373155331 -0.002261895275 -0.000466860136 -0.061311153313 -0.548218859732 9.820800976753
482 4.819727897644 -0.000303470132 0.000826507818 0.003385711284 -0.058693359434 -0.559288260229 9.815593446493
483 4.830241203308 -0.000953098996 -0.000873266191 -0.001461049575 -0.082570505664 -0.559030873105 9.811575239897
484 4.846079111099 0.002953853445 -0.003474397149 -0.002879949425 -0.065572311720 -0.563034900203 9.809914045930
485 4.850234985352 -0.002004095559 0.004561670375 -0.001400701019 -0.069352363050 -0.533599541523 9.828163790703
486 4.860045433044 -0.002184714057 0.004480300400 -0.005713648792 -0.060100788809 -0.528620162308 9.812068744898
487 4.872774600983 -0.003941796224 -0.002420821493 0.000334064105 -0.084317671973 -0.549330561608 9.802980417609
488 4.882452487946 -0.004209100876 0.002248422644 0.000423936559 -0.066686402732 -0.570659121238 9.825645979643
489 4.889770269394 -0.003451720228 -0.000834541774 -0.001400678522 -0.043176219533 -0.573067772090 9.818200135231
490 4.902684450150 -0.000390135025 -0.007156998359 -0.001969671081 -0.066295150914 -0.559854124524 9.810405796766
491 4.915924787521 0.001102345833 0.000298816232 0.002587029273 -0.078878025524 -0.546358860433 9.814206486940
492 4.920742750168 -0.003678898272 -0.003358889298 -0.005731679225 -0.054263143404 -0.537504860312 9.789808394909
493 4.930317878723 -0.001107799072 0.002546425169 -0.004158532544 -0.065500747282 -0.568934960067 9.814163217545
494 4.943396806717 -0.004518468908 0.002282236728 0.003558725989 -0.049758932688 -0.548976512700 9.810100572109
495 4.949316501617 -0.000809385890 0.000730604891 -0.000538467408 -0.047794546885 -0.552071517035 9.828133385181
496 4.960311651230 0.003688627392 0.001907724108 0.001421498902 -0.054731450561 -0.548132467121 9.838113412857
497 4.975627660751 0.000012592165 -0.007969108007 -0.000983128998 -0.079699047692 -0.539469049685 9.799914722443
498 4.982445240021 0.000135912372 0.000903128380 0.000812524012 -0.061673845137 -0.537491923347 9.820630238056
499 4.989843368530 0.002543014034 -0.001379138256 0.000450521097 -0.066364413011 -0.547790258825 9.817776796818
500 5.004444837570 -0.001659100205 -0.003282297930 0.000389652749 -0.062020813432 -0.553632979430 9.806235562563
501 5.012109994888 -0.000635283424 0.001732568471 -0.001772984151 -0.051535577187 -0.563929743469 9.812971554995
502 5.019685506821 0.002939511127 0.001882862563 -0.000208639003 -0.063078935626 -0.556250120066 9.821446509361
503 5.029396295547 -0.000360488307 -0.001035359595 0.001828368149 -0.066402643751 -0.546193420775 9.801446108222
504 5.045924186707 0.003703130957 -0.002355655970 -0.002005250680 -0.079421780035 -0.553701501489 9.820567088127
505 5.049985647202 -0.005763213757 0.001377019041 -0.002303092868 -0.072427016334 -0.560213033929 9.843884614706
506 5.060507535934 -0.001533416817 -0.002112075688 0.001442474937 -0.064457151764 -0.551887147017 9.833042707443
507 5.070126771927 -0.002219156741 0.003465022510 0.000436089248 -0.065982128447 -0.558469869308 9.824719780684
508 5.082100868225 -0.000724398217 -0.000375607078 -0.000592162061 -0.063474764717 -0.543457325846 9.795773724318
509 5.088975429535 0.000626129848 0.002875722437 0.002289009323 -0.086384662706 -0.549171663523 9.809647412896
510 5.101234197617 -0.001350442175 0.002378263711 -0.002293009527 -0.082863615621 -0.539735609628 9.827893649340
511 5.114376544952 0.002689353175 -0.000643661198 -0.000198743972 -0.084051916022 -0.540445790514 9.833807523251
512 5.119016885757 0.003536270911 -0.000615056209 0.001886919852 -0.091178950137 -0.545152762569 9.834647183418
513 5.128705263138 -0.000725964059 0.000249494355 -0.001004166475 -0.076289052023 -0.557384589538 9.818304215670
514 5.148361206055 -0.005756847658 -0.000591292242 -0.000551397166 -0.070313489987 -0.578014260717 9.794385010600
515 5.149957656860 0.001884102727 -0.000854860926 -0.000753382330 -0.076472147531 -0.565974003151 9.809139874578
516 5.158777952194 -0.005844818838 0.002518080448 0.001214701323 -0.076605920861 -0.559504936114 9.798497942090
517 5.171159744263 0.004521775493 -0.003686355383 0.001266698373 -0.064969134880 -0.557181179523 9.799072138667
518 5.185115575790 -0.000280969867 -0.001184192394 0.001288254763 -0.055451745302 -0.556329642199 9.836082090139
519 5.188633680344 0.001749383447 0.002480118699 0.002170319594 -0.065043444769 -0.549243767001 9.824069570303
520 5.204538822174 -0.002721266636 0.003315705517 -0.002562257713 -0.071265489785 -0.554766352549 9.811816145182
521 5.210413217545 -0.000187457591 -0.000197650375 0.000380443517 -0.081712079588 -0.559996284954 9.804559750557
522 5.219318866730 0.001945770121 -0.002427281479 -0.002274792100 -0.074455899666 -0.561553727388 9.811990392208
523 5.228663921356 -0.001537775142 -0.002436952603 -0.001478804719 -0.058646915182 -0.561746904776 9.839146031141
524 5.239929199219 -0.002898193119 0.004793831443 -0.000603582575 -0.059033000437 -0.553415207192 9.849012622833
525 5.250379562378 0.001702441851 -0.002784167952 -0.005781811672 -0.067587970295 -0.552888409607 9.832634571791
526 5.258893013000 0.001565040034 -0.004289110921 0.001643151277 -0.089157622503 -0.553452008106 9.809650336504
527 5.272651433945 0.002808288025 -0.004660877286 -0.000678019748 -0.072764839218 -0.545010529049 9.797957074642
528 5.280194759369 -0.000937406501 0.001210442996 -0.003208582203 -0.063875764939 -0.570170842186 9.802850024700
529 5.288396596909 0.000050099357 0.000804653708 0.002289907620 -0.085723945610 -0.555224701166 9.813536396027
530 5.300365209579 -0.002467277790 0.003543511641 0.000319491393 -0.071368802777 -0.552769162953 9.794668015838
531 5.313731908798 -0.001899691192 -0.001139704340 -0.001411297227 -0.074145047064 -0.567254177928 9.798462274075
532 5.318542242050 0.000260975206 -0.001776624022 -0.000506212048 -0.079894582238 -0.560178316087 9.817937010527
533 5.329141616821 -0.000141385197 0.004871503680 0.001162393354 -0.063090849328 -0.554075065479 9.819169603586
534 5.340998411179 0.002529145050 -0.000515570204 -0.000074512253 -0.052800142639 -0.540964621268 9.825421446562
535 5.349161863327 -0.001826439828 0.004171981508 -0.000103453698 -0.076143456353 -0.535309486650 9.795098370910
536 5.358627080917 -0.001858112070 -0.000282924000 -0.002776696277 -0.063213677402 -0.550422858037 9.838565987349
537 5.371841669083 -0.000803029413 0.000956710323 0.001408814037 -0.055741068274 -0.573482668586 9.843181779385
538 5.381064891815 -0.000689440521 -0.001336557847 -0.002189134021 -0.055743270116 -0.550557782538 9.830605587959
539 5.389274835587 -0.001204491975 0.003918665994 -0.000969068470 -0.060259924438 -0.522922964282 9.807702044249
540 5.405631065369 -0.000177185777 -0.004098808296 0.001329037408 -0.057467659693 -0.542490050197 9.812238314152
541 5.410958766937 -0.002400202281 0.005213896211 -0.001413619040 -0.081681774566 -0.530568564199 9.823463798761
542 5.418604135513 0.002262651051 -0.006281323945 0.000236323135 -0.093857559627 -0.526882954538 9.822283830643
543 5.428949594498 -0.002872043165 0.001094822663 0.000651441777 -0.065065668756 -0.548093985133 9.837752054930
544 5.444277286530 0.000981103279 -0.006252998730 -0.002356560508 -0.044180218438 -0.570747779645 9.820094633102
545 5.448475837708 -0.000469660389 0.002590068501 0.000168511502 -0.061736515411 -0.570216377378 9.829019823074
546 5.459081649780 -0.002929821017 -0.000083279066 -0.000340161613 -0.050761373858 -0.554351200238 9.827497208118
547 5.471489906311 -0.001517571788 0.003299168171 -0.001613899417 -0.071413721270 -0.549890359417 9.827251625061
548 5.483028888702 -0.001294312674 0.006487407880 -0.002093225501 -0.086582691455 -0.544897166155 9.802012703419
549 5.488368988037 0.001567718019 -0.000355400766 -0.000177456514 -0.091962111583 -0.571598914973 9.812181011438
550 5.503630161285 -0.001834802648 0.005360686321 0.000449251837 -0.086475395048 -0.552284428775 9.795611756444
551 5.509218692780 -0.001334908066 0.003323815935 0.001592355250 -0.074567188625 -0.546162247807 9.780988454819
552 5.521862268448 0.000402808967 -0.001389717820 -0.001564521836 -0.077260411587 -0.562490341701 9.804053381681
553 5.529906034470 0.000506887883 -0.001291667068 0.000802187748 -0.073404177432 -0.566411265247 9.798163481355
554 5.560699939728 -0.000605670386 0.000672892447 -0.002721579765 -0.094591074558 -0.553840336315 9.812607858181
555 5.568540573120 0.000438393311 0.000281628277 0.000638811983 -0.068906257041 -0.566719303876 9.824701069593
556 5.575843572617 0.000744658202 0.001301399440 -0.001123355418 -0.050354403080 -0.557203800939 9.828438609838
557 5.602852821350 -0.001337617780 0.002451597649 0.003066043528 -0.067731834641 -0.526597610414 9.816952339411
558 5.627668380737 0.000462833958 0.005326209308 -0.004043171376 -0.070930983368 -0.533676213138 9.825357127190
559 5.651233673096 -0.001679164549 0.001554147861 0.001986780201 -0.069038143731 -0.549415675141 9.800753797889
560 5.677263975143 0.002086375534 -0.000433623353 0.000530673468 -0.078502762187 -0.548596918769 9.781276722550
561 5.691399335861 -0.000331664432 -0.000321985636 -0.000767376084 -0.080688999575 -0.564596910775 9.785621788502
562 5.700200557709 0.000860631065 0.000104239643 0.001762246853 -0.072321629408 -0.553753980249 9.812382155657
563 5.707536935806 -0.000205836459 0.001221606816 0.001191050684 -0.066782973153 -0.548979070857 9.818493665457
564 5.721024036407 -0.000461239540 0.002283275205 -0.002147969326 -0.068833673908 -0.539934670776 9.792174763083
565 5.735779523849 -0.002328393939 -0.000609357395 -0.001684916743 -0.098958478700 -0.548217471018 9.809419371486
566 5.751249074936 0.004538045743 -0.008020793618 -0.002070853258 -0.082129378924 -0.544880757406 9.810389424562
567 5.787445545197 -0.002370074490 -0.001627490381 0.000405782884 -0.068691454092 -0.560471480861 9.804667339325
568 5.793498754501 0.001454247591 -0.000253244871 0.000569143077 -0.067565129609 -0.572674510293 9.812192705870
569 5.807162761688 -0.005391387575 0.001609245647 -0.001856167234 -0.085981716458 -0.561274595931 9.814460256100
570 5.818091154099 -0.000549690493 0.003788068631 0.002361376565 -0.078713545175 -0.565305045135 9.814160878658
571 5.825434923172 -0.000579203272 -0.000577789963 0.001222906408 -0.076576086357 -0.561874995343 9.812763394117
572 5.841473340988 0.000985423634 0.001407907678 -0.000444426840 -0.052819977491 -0.558091152459 9.811921395063
573 5.846066236496 0.003112016866 -0.000379960462 -0.000486137463 -0.071995752202 -0.549965349957 9.806628495455
574 5.848327875137 -0.001945170520 -0.001295708883 -0.001663695198 -0.061304451856 -0.563339722864 9.806596335769
575 5.856517076492 -0.000561478102 -0.000218754724 -0.001333739292 -0.056846077829 -0.547929751463 9.797029706240
576 5.863469839096 0.003129003881 -0.000594512027 0.002221360870 -0.076044880520 -0.552591699958 9.807536568046
577 5.882936000824 0.001875765135 -0.002919639368 -0.001333399375 -0.063927727500 -0.560829440095 9.828214076757
578 5.886568546295 -0.002289247031 -0.001318685410 -0.001833270290 -0.033878089122 -0.538902271762 9.822408961058
579 5.895717620850 0.003121010236 -0.004419505426 0.001915775489 -0.056869078400 -0.542105449587 9.815977023840
580 5.925716876984 0.002411211747 -0.001321316712 0.000925057132 -0.064441272919 -0.550331678018 9.827001364231
581 5.956009149551 -0.001371357353 -0.001905654046 0.000778126712 -0.052035555239 -0.540852902904 9.822965615988
582 5.958063364029 -0.000491766869 0.000985138007 -0.002633008073 -0.065685167550 -0.548161045387 9.828843237162
583 5.988196611404 -0.001116326259 -0.001234497790 0.000980553742 -0.063104352742 -0.557776974253 9.819505233765
584 6.010860204697 0.000345874113 0.002314344984 0.003308717580 -0.072727015042 -0.571303009316 9.810555485487
585 6.028704404831 -0.004972851524 -0.000528274900 -0.000674129946 -0.063556735371 -0.567814523913 9.821681567430
586 6.031929731369 -0.000753713275 0.004767095282 0.002963347459 -0.068182294085 -0.572208158299 9.814952591658
587 6.058658838272 -0.000748240140 0.003291897273 -0.003201912337 -0.087036819113 -0.555059005693 9.833268409967
588 6.080432653427 -0.004713372769 0.003494948482 -0.000105387627 -0.100161826545 -0.554054782949 9.817359305620
589 6.084189176559 0.000776171863 0.003112696180 0.000011106154 -0.073193449262 -0.538378872871 9.791252657175
590 6.088565826416 -0.003229116631 0.002615615602 -0.001271343170 -0.060017434009 -0.559678342603 9.806742516160
591 6.104243040085 -0.001741609305 -0.005633891279 -0.001568309428 -0.075325992764 -0.564813513570 9.806427351236
592 6.126784563065 0.000854215031 -0.000717548964 -0.002844947322 -0.082018455416 -0.559514291659 9.809124087095
593 6.154409885406 -0.000629168817 -0.001435608585 -0.000181019435 -0.073435076312 -0.561322872005 9.817027183771
594 6.164996862411 0.000982439216 0.001368671305 0.001921511038 -0.060370971286 -0.552783561721 9.817718324661
595 6.184617280960 -0.000752243920 -0.001422495247 -0.001464022225 -0.071365696443 -0.561918812916 9.804094896913
596 6.189827680588 0.002788437332 -0.004653421476 -0.001116720141 -0.089945717538 -0.556706458703 9.812895541191
597 6.202768325806 0.000152429692 0.001522883286 0.000475311382 -0.100757950181 -0.575815597996 9.773816260099
598 6.223341941833 -0.000036442273 -0.000737615454 0.001486783800 -0.076890611742 -0.581275983788 9.794503124356
599 6.229556083679 0.001898979109 -0.003761067975 -0.000577264678 -0.081190270409 -0.595371099114 9.817993143797
600 6.233186244965 0.001902610136 -0.001996763674 -0.003989380983 -0.112127459021 -0.627767816707 9.834885749817
601 6.256240844727 0.001883368407 -0.007336870444 0.001626520304 -0.132071690345 -0.794838993922 9.823773701191
602 6.265156745911 0.011045682204 -0.009577478375 0.002770176994 -0.140995363696 -0.819142287970 9.809230506420
603 6.266792535782 0.008105893578 -0.002191428656 0.001590017832 -0.139726636671 -0.701961747408 9.817145297527
604 6.300445556641 0.014757293405 0.002365450109 0.006954070685 -0.017561750187 -0.578343824409 9.803880888820
605 6.312412738800 0.011933760083 0.003432662242 -0.000432337675 0.004577675499 -0.482255396694 9.803106132746
606 6.338973999023 0.009778796708 0.002097890064 -0.005583322427 -0.074383234307 -0.483539810702 9.822263950109
607 6.343818187714 0.007008863664 -0.001036566795 -0.002637372120 -0.268989370298 -0.414864043593 9.805150904059
608 6.359609365463 0.002157842918 -0.007882485052 -0.001925053510 -0.423186641447 -0.369545381404 9.822383233309
609 6.385278701782 0.000956262020 -0.016820439100 0.003477118306 -0.446419017948 -0.269876995906 9.800072597265
610 6.405957698822 0.001229610994 -0.018619472036 0.005940481977 -0.417355396003 -0.218662184179 9.805959573984
611 6.429211854935 -0.006572205634 -0.024149815242 0.006868170737 -0.346317207590 -0.230168919861 9.831058162451
612 6.438041925430 -0.012013679883 -0.030543630175 0.005686866338 -0.217073915955 -0.254388087094 9.852713910341
613 6.466143369675 -0.012767869419 -0.031771478515 0.007874649012 -0.106596431555 -0.286764503885 9.843952442408
614 6.473049163818 -0.015429077871 -0.027243657334 0.008741244752 0.062333676014 -0.434907202497 9.841158642769
615 6.485921144485 -0.012864266488 -0.028016972736 0.009873718635 0.241954238825 -0.558516464308 9.805667797923
616 6.489577054977 -0.020079077809 -0.021419604910 0.007864203387 0.459529389068 -0.642706502527 9.806713864803
617 6.517681837082 -0.010205784655 -0.008118090544 0.010147076517 0.703898491412 -0.736733896360 9.815984040499
618 6.522500991821 -0.010833043356 0.006510378165 0.002549951256 0.874330428913 -0.696239150539 9.811876956224
619 6.541086196899 -0.013727076585 0.012758431842 -0.005890076973 0.798033620194 -0.646190419793 9.830561149120
620 6.543533563614 -0.011666445289 0.020274645379 -0.008066442384 0.654584974945 -0.618387786448 9.806898636818
621 6.549813508987 -0.008348550726 0.036922398248 -0.005178544828 0.567247417085 -0.698264041319 9.812820696831
622 6.559022665024 -0.004042305588 0.044372791135 -0.002025318665 0.580778312646 -0.846095467061 9.837890049219
623 6.575051307678 -0.000932296821 0.046875842148 -0.018169932525 0.512861367948 -0.743297103569 9.836594306231
624 6.579351186752 0.002368502341 0.054702144383 -0.012849582691 0.492247520797 -0.554766900726 9.827809449434
625 6.593787670135 -0.001167315651 0.065153391347 -0.005057532764 0.527339695171 -0.379085588828 9.824840233326
626 6.598159551620 -0.001261497666 0.068053307458 0.009146818179 0.496979855150 -0.457024514973 9.835941756964
627 6.607907772064 -0.009715046249 0.089020720099 0.024101004493 0.536650253199 -0.550772411898 9.826981483698
628 6.622970104218 0.001409446148 0.090737751600 0.013780078692 0.453128917180 -0.831129957139 9.809698868394
629 6.632439613342 0.002126450517 0.096057174529 -0.002400294607 0.245450106338 -1.191309597418 9.814792377949
630 6.643704652786 0.016995877958 0.106195146364 -0.003613774101 0.158575538322 -1.571287617534 9.831026587486
631 6.653490066528 0.035366517121 0.097687944577 -0.009038964316 0.074853683920 -1.636957842708 9.819604636431
632 6.669313430786 0.049722923639 0.107301997724 -0.016672483857 -0.018201128372 -1.535911524296 9.829562444687
633 6.681224584579 0.068437589120 0.102430277142 -0.012741281500 -0.098099787673 -1.073146724626 9.824980566502
634 6.705037832260 0.074369614001 0.105277762269 0.006272595850 -0.095902486257 -0.767428050935 9.863844670057
635 6.716042041779 0.084448721653 0.103952107258 0.014077819062 -0.160136562176 -0.507109608091 9.855712362528
636 6.735557556152 0.090626997388 0.103736307986 -0.006376658870 -0.254445408080 -0.285381509475 9.913315622807
637 6.740173339844 0.086431103867 0.099739868585 -0.002875481868 -0.266598224547 -0.063540459098 9.838045585155
638 6.750131607056 0.077765377417 0.100315469243 0.002885558708 -0.246495515406 0.120949929859 9.879418144226
639 6.763954162598 0.061585533629 0.104645402991 -0.011392471551 -0.375891876183 0.285863301773 9.887435846329
640 6.786897659302 0.049465766308 0.087935223961 -0.038761261046 -0.735176490471 0.284157961328 10.005377694368
641 6.790959596634 0.038948427176 0.066657777758 -0.046162410420 -1.085740676969 0.308084712960 10.293452467918
642 6.800884723663 0.021583691004 0.071231403229 -0.040221276696 -1.219167194590 0.318933746517 10.420718286037
643 6.818156242371 0.015395928797 0.043788751585 -0.054328656846 -1.258123026341 0.125940729417 10.493581609726
644 6.853287458420 0.014151758193 0.033834331887 -0.075031992098 -1.196233830079 -0.136469929414 10.445902243853
645 6.856207132339 0.013270696079 0.002995312934 -0.070387439157 -1.297130240500 -0.308831950575 10.400443650484
646 6.864763975143 0.012858529248 -0.020535264820 -0.011364487554 -1.273140284121 -0.233478023652 10.326369953156
647 6.888198852539 0.016022091025 -0.062490205290 0.044131675187 -1.304860844314 -0.003682161574 10.325394637585
648 6.906115770340 0.010550841907 -0.094614165659 0.060235985069 -1.320164177120 0.289552273583 10.273473701477
649 6.940140485764 0.001706258182 -0.118092427382 0.101686789145 -1.091154029220 0.438631074876 10.313748153448
650 6.956481933594 -0.012871501755 -0.128748134377 0.118373782028 -1.253668763638 0.269193876665 10.508617140055
651 6.966081857681 -0.022171159373 -0.151557717962 0.128493369729 -1.512007814348 0.029720796451 10.497862941027
652 6.982845067978 -0.026149050272 -0.183270740091 0.090275734763 -1.245456933975 0.044504487659 10.288120976686
653 7.011002302170 -0.054317051290 -0.186039112689 0.063603061247 -0.483816968724 0.249219331183 10.029812039137
654 7.018297672272 -0.064855525102 -0.184633845806 0.080170744514 -0.353759032041 0.191237719506 9.996619734764
655 7.024304389954 -0.055191271368 -0.233669615627 0.055490003141 -0.388611032031 0.066216652044 9.687373362780
656 7.051433086395 -0.064015027301 -0.217901088747 0.088529300299 0.567905046120 0.164515998792 9.275788437724
657 7.079463958740 -0.072667471235 -0.181604932829 0.108484424604 1.499763744771 0.223090353683 9.256546420455
658 7.096356630325 -0.093974382819 -0.143381463876 0.072771309550 1.467285093069 0.114710165039 9.551252521276
659 7.125195264816 -0.104411394355 -0.131542614276 0.065435719712 0.725071332380 -0.168657344095 10.063815937042
660 7.163134813309 -0.119530068317 -0.129470824751 0.120265267226 -0.072356269592 -0.283600776494 10.541087898016
661 7.180409669876 -0.117900430112 -0.133630332834 0.149803077633 -0.506153844148 -0.237427982278 10.733574728966
662 7.187063217163 -0.126119486190 -0.123287913451 0.145655520486 -0.187864826247 -0.149576161802 10.531621255875
663 7.195104837418 -0.133562646930 -0.093228639457 0.152988950666 0.668293333501 -0.225373088401 10.265750699043
664 7.212646484375 -0.144805306308 -0.057134359473 0.144428036250 1.389191581160 -0.395226389095 10.020540693998
665 7.231065750122 -0.146742256658 -0.024755455525 0.121601982678 1.398531338722 -0.761215384305 10.145507386923
666 7.247179508209 -0.144390252652 -0.010616217310 0.101408280752 0.735628553331 -1.120886682272 10.570192998648
667 7.256939411163 -0.122508406200 -0.018537658895 0.105063136453 -0.092260493170 -1.296298181713 10.755576632023
668 7.268142461777 -0.111360072659 -0.022006709176 0.112594131574 -0.551112464033 -1.145281631425 10.644488890171
669 7.280975818634 -0.093041227818 -0.031679786711 0.123637386765 -0.359879349209 -0.889669137374 10.251295212507
670 7.292882680893 -0.090277107955 -0.006769068895 0.123285142099 0.269540707916 -0.777028009593 9.920086698532
671 7.299519538879 -0.088447341517 0.019838199049 0.110850684844 0.751656429246 -0.970076027066 9.911780143976
672 7.304928064346 -0.074630653722 0.042535380591 0.090448981714 0.815268946141 -1.405461312532 10.059375561476
673 7.319243907928 -0.055543491067 0.056683016086 0.074026698721 0.393833618872 -1.804188356549 10.294016139507
674 7.340358495712 -0.033046602126 0.047067294302 0.062792507363 -0.212990330178 -1.893497997522 10.466221318245
675 7.345794200897 -0.010460749040 0.031410880262 0.070036742453 -0.596465588249 -1.621968943924 10.248271032572
676 7.356413125992 0.002155173255 0.018739830272 0.089694549789 -0.563983428217 -1.201396263689 9.898674194813
677 7.364902734756 0.016697912884 0.020182972300 0.095081001153 -0.255154273342 -0.935028181896 9.678728254437
678 7.379594326019 0.026043102234 0.027626164249 0.091087507875 0.086027498329 -1.104896155447 9.690899818540
679 7.385072231293 0.039719096061 0.034992804880 0.079812191485 0.152620459814 -1.516209038794 9.852248471975
680 7.395151138306 0.067945195602 0.020890114390 0.053963337724 -0.119294537427 -1.866164603233 10.076599119902
681 7.414396047592 0.095402885783 0.008105999689 0.049378718391 -0.453063903451 -1.859180688858 10.098012793064
682 7.425439119339 0.105423437181 -0.003986156582 0.053160611037 -0.677710639760 -1.527420928627 10.004472545385
683 7.433426618576 0.124608067370 -0.022477067117 0.058620074627 -0.654003250077 -1.043903337345 9.856836197376
684 7.459161520004 0.124290934819 -0.023429263720 0.059679950323 -0.364488782398 -0.726207884923 9.853670514822
685 7.465489864349 0.128174098327 -0.023130496577 0.051024348046 -0.083509257864 -0.725104515329 9.966763851643
686 7.495384216309 0.139830221786 -0.020812287669 0.046086056759 0.025456280464 -0.978537386656 10.121955971718
687 7.500433921814 0.149243647357 -0.020375140179 0.028880588024 -0.091078378027 -1.273253720105 10.234295017719
688 7.514077901840 0.164672055276 -0.036058518725 0.015326381802 -0.314405808896 -1.347633665353 10.215833019018
689 7.528535842896 0.171905267376 -0.047306292204 0.011317739714 -0.485230277292 -1.037661726996 10.094505633116
690 7.543046951294 0.167609788274 -0.060961679821 0.015668145473 -0.514228556603 -0.599425119907 9.986925051212
691 7.562245845795 0.162088689150 -0.060122467828 0.019160349650 -0.366499310955 -0.301048466004 9.951131905317
692 7.578397989273 0.152465739380 -0.054339925347 0.025422130050 -0.213353369180 -0.296133954339 10.100511893034
693 7.591128826141 0.159964002588 -0.065362370430 0.016044048580 -0.087268039947 -0.544339670688 10.346103136539
694 7.593522548676 0.164074525151 -0.061272732875 -0.000236881238 -0.057315125023 -0.723811184317 10.487941385508
695 7.599298238754 0.159583320355 -0.061447719204 -0.010041033812 -0.117908719908 -0.756507937163 10.547022821903
696 7.601469039917 0.155861502797 -0.064531501621 -0.017827185773 -0.206566652153 -0.551740856990 10.482751396894
697 7.610644817352 0.141316465411 -0.059966618808 -0.018355769154 -0.305014742017 -0.233058961015 10.384031685591
698 7.624659299850 0.129850799582 -0.071911433091 -0.020514993587 -0.360562961809 -0.023434048339 10.372980448008
699 7.627714872360 0.121003120973 -0.069643093955 -0.018402249637 -0.309514064826 -0.053613805538 10.407293078899
700 7.631615161896 0.116728331304 -0.074945913738 -0.024222958545 -0.195338444933 -0.210027600825 10.449128737450
701 7.648126363754 0.112717128005 -0.070378392732 -0.032154834312 -0.087598179225 -0.316270230152 10.519343272448
702 7.652652978897 0.114333783300 -0.067606616281 -0.047694889019 -0.051451445804 -0.330571094379 10.510953687429
703 7.664840221405 0.104138012547 -0.074718538038 -0.051702592758 -0.111116959658 -0.192291058861 10.448199030161
704 7.683428049088 0.095508621601 -0.089155176445 -0.048143831399 -0.208092081081 -0.057536665974 10.441516832113
705 7.687345266342 0.087870334377 -0.093984611022 -0.044204158942 -0.228007880319 0.090113468673 10.431390624046
706 7.703933715820 0.081361751765 -0.100351763135 -0.049971117769 -0.178234882336 0.128621568158 10.445844941139
707 7.721566915512 0.079567555172 -0.096347625535 -0.048204226899 -0.024532404402 0.023218162742 10.495843312740
708 7.723343133926 0.077067687468 -0.100747442294 -0.050934749320 0.050383885838 -0.172605804373 10.542794115543
709 7.744868993759 0.074711339180 -0.108338649824 -0.058386948163 0.035483643177 -0.235236116946 10.506360114813
710 7.767371177673 0.072994216133 -0.117969605721 -0.052458506066 0.029851586788 -0.172108736224 10.446096371412
711 7.770707845688 0.065244592131 -0.115971344409 -0.047471345773 -0.016670896048 0.044264372662 10.464999250174
712 7.792436122894 0.054924963582 -0.127010504990 -0.046383344600 0.015963607935 0.264127903841 10.526984413862
713 7.802050590515 0.043078432427 -0.122037417839 -0.039591072914 0.123878836725 0.361421515793 10.648393660784
714 7.819748163223 0.038255185538 -0.126550593714 -0.041999140622 0.258856876474 0.291284730490 10.739202089310
715 7.827058553696 0.030151296612 -0.110972149957 -0.044000984718 0.332859109864 0.125847219648 10.775459504128
716 7.837387084961 0.026860062269 -0.115172962004 -0.048185347584 0.398089441694 -0.058988538757 10.695425155163
717 7.868099927902 0.018876558627 -0.116656634014 -0.044765149665 0.385983804949 -0.164762824383 10.619980870485
718 7.901822090149 0.016037626825 -0.120140989149 -0.038003562588 0.331161334254 -0.087752006678 10.641482251883
719 7.915344238281 0.006653996929 -0.113644856815 -0.032571123841 0.297079503927 0.062322986573 10.746391825676
720 7.920812845230 0.001464766688 -0.120323182657 -0.018108315715 0.279035307057 0.140804890646 10.858788174391
721 7.935770034790 -0.009513466801 -0.120687070330 -0.011594912366 0.300817848165 0.180476266276 10.859935398102
722 7.941704511642 -0.014312495569 -0.121294920204 -0.004907688341 0.386509981267 0.092647350440 10.810294876099
723 7.966164112091 -0.029162824842 -0.115293053924 -0.001867331444 0.416215152405 -0.058571531782 10.731921136379
724 7.976048707962 -0.028447849314 -0.125837715425 0.007591223134 0.335172231831 -0.166221119966 10.678746557236
725 7.984858036041 -0.036417841574 -0.118538748213 0.014385484908 0.218580615520 -0.280844654851 10.634840984344
726 7.995832681656 -0.041010267297 -0.126651527520 0.024319425314 0.116332867881 -0.315446796007 10.567935973406
727 8.013715982437 -0.040862865492 -0.129292068385 0.037280110717 0.086916722786 -0.298244488556 10.446053102016
728 8.019696950912 -0.043643996296 -0.133412361421 0.051431778404 0.137337053223 -0.289596072882 10.255250269175
729 8.025907516479 -0.046477487344 -0.132919718231 0.066243136059 0.232564688567 -0.319103315771 10.143997635841
730 8.027544498444 -0.047199570184 -0.134357084528 0.070995613604 0.220024640244 -0.491677453816 10.128035906553
731 8.029954433441 -0.044381646145 -0.143105843348 0.064178366460 0.161653658822 -0.658656902835 10.160979119539
732 8.033783197403 -0.032663770638 -0.148870338751 0.059211408741 0.085697441278 -0.739094051868 10.145723733902
733 8.036923646927 -0.023621281795 -0.139692719450 0.058903871892 0.023084272924 -0.665816087499 10.126123867035
734 8.042965173721 -0.015579955309 -0.155942945592 0.050434957207 0.033852927822 -0.497568048500 10.067099733353
735 8.044549703598 -0.012696409317 -0.153960754793 0.051950275062 0.154442433938 -0.388475120813 9.955387508869
736 8.047821760178 -0.010584283304 -0.154771337805 0.053299902684 0.228022918627 -0.456810470335 9.839134336710
737 8.049691438675 -0.006093300091 -0.156242085161 0.055777736891 0.237745065819 -0.622231526747 9.765550636053
738 8.051582574844 -0.001562777388 -0.161138489918 0.057454205120 0.260458319206 -0.825774419233 9.725752147436
739 8.054332256317 0.005245062477 -0.156966048859 0.045075898952 0.241990254018 -0.895159453601 9.659918931127
740 8.055729389191 0.016396422243 -0.157533402040 0.029997661346 0.196424181517 -0.803549883440 9.585593803525
741 8.057367086411 0.025872653683 -0.170460602353 0.028453770686 0.148931990499 -0.661926373467 9.572892481685
742 8.058009624481 0.029272678157 -0.164393222310 0.035368651811 0.208418264352 -0.500694262348 9.466288969517
743 8.059769868851 0.027824831905 -0.169228607388 0.040942506492 0.369595740549 -0.450249309652 9.365963612795
744 8.061366796494 0.033289985921 -0.164101789263 0.033886427895 0.501933908612 -0.521139344238 9.364162085652
745 8.062642812729 0.035087084944 -0.163828948409 0.021836148272 0.558782804981 -0.635982935429 9.425321037769
746 8.063353538513 0.046471091596 -0.164969247409 0.009148474332 0.526835445911 -0.645974511355 9.452101285458
747 8.064518451691 0.056492146498 -0.157876433833 0.002571040944 0.461773440801 -0.581026271135 9.486560681462
748 8.065941333771 0.059630710971 -0.167145615941 -0.001844286648 0.412422502153 -0.435092559233 9.458003464937
749 8.067712783813 0.062363272375 -0.173685740367 0.002395894149 0.497102025412 -0.291615993530 9.465359846950
750 8.070242166519 0.064024518973 -0.164351527194 0.005753098946 0.680994362980 -0.247548324857 9.501538909078
751 8.072641134262 0.069999374974 -0.162765448317 -0.001509969296 0.846487669051 -0.352007060051 9.555061397552
752 8.075522422791 0.074289952195 -0.160031047668 -0.016472708284 0.910967547297 -0.516261925846 9.666257897615
753 8.079000711441 0.085789157209 -0.153502158453 -0.018426794412 0.767411094010 -0.624285726696 9.872104446888
754 8.083103418350 0.087890940586 -0.161756792699 -0.024131520574 0.624371022955 -0.534767230488 9.852967679501
755 8.085671186447 0.088225308783 -0.154557319522 -0.012341744919 0.637926257551 -0.319759117551 9.764340262413
756 8.089229345322 0.077100394415 -0.150174522026 0.001933964307 0.731346418038 -0.150032993797 9.767446303368
757 8.090176105499 0.072699379234 -0.142360374624 0.014320066853 0.908829878345 -0.140348853506 9.831487348080
758 8.091478586197 0.067219825422 -0.145545715025 0.021767089176 1.093087995797 -0.248702930678 9.877663979530
759 8.092293024063 0.069059815903 -0.139901078516 0.021808193403 1.193636204526 -0.398400038481 9.958302930593
760 8.093994379044 0.077374733297 -0.130190935187 0.019371195027 1.237688323259 -0.345422875956 9.989659209251
761 8.096603155136 0.076474593171 -0.114399055713 0.016027449596 1.284884562939 -0.141009259969 10.023090080023
762 8.098071813583 0.074813679468 -0.115630459790 0.023274040959 1.356216354668 0.106842105975 10.032795288563
763 8.098585128784 0.065985916310 -0.108281941137 0.025065640971 1.387635198534 0.228191190530 10.011826003790
764 8.099970340729 0.065598626109 -0.100327578304 0.035833514902 1.466418828070 0.139809456998 10.023132179976
765 8.100867271423 0.056624205999 -0.082802646750 0.038745556718 1.471204774082 -0.184604820795 10.051727403402
766 8.103816747665 0.063883438014 -0.075028471732 0.039988025397 1.401001787335 -0.459628280103 9.999245134592
767 8.106981992722 0.064156345447 -0.066670515158 0.042782617648 1.404612296820 -0.508337157927 9.916064983606
768 8.116548776627 0.066979841318 -0.053168500652 0.054076684357 1.427211346775 -0.373429248221 9.840844062567
769 8.118420362473 0.066372091313 -0.043540574100 0.049936109685 1.478019557744 -0.126388918497 9.742875718474
770 8.119682312012 0.063724393202 -0.027750357021 0.046372891692 1.531376423836 0.066175493128 9.765022632480
771 8.120389938354 0.059771700384 -0.014281122283 0.049531883443 1.550171421468 0.127187995333 9.854650508165
772 8.121255636215 0.058718994417 0.007365177453 0.050063704229 1.602170271724 0.038946366571 9.974332487583
773 8.121945619583 0.060649449151 0.019477355286 0.059530809141 1.720109634697 -0.059224286615 10.082074452639
774 8.123129367828 0.057878729642 0.029780836341 0.059614299241 1.739669155777 -0.090258899890 10.073868470192
775 8.124090194702 0.052922170734 0.038066629572 0.058200572660 1.730497505665 -0.119705715459 10.006770501137
776 8.125054597855 0.053388290504 0.055036533386 0.068270417505 1.525192700922 -0.121624515820 9.929718232155
777 8.126960992813 0.046433370416 0.064264694492 0.076950924499 1.362882472873 -0.177902504671 9.857929626703
778 8.128075599670 0.042534169685 0.074592645420 0.079034157295 1.143958187252 -0.308942207135 9.825429632664
779 8.129959583282 0.038658833374 0.085559076735 0.081345290101 0.992995358258 -0.484625382833 9.767704165578
780 8.130814313889 0.040530561245 0.089779537918 0.091835548213 0.963809127510 -0.624548924491 9.614149265885
781 8.131948232651 0.043949236169 0.095646498444 0.098699979081 1.040523719788 -0.610864978060 9.515071704984
782 8.133209466934 0.049823212460 0.103970058628 0.094596389059 1.113295900002 -0.511980959997 9.566586844325
783 8.134342193604 0.051565843597 0.114281410572 0.073205979052 1.102014793754 -0.338116670363 9.635340160131
784 8.136713743210 0.058875205459 0.124038708497 0.064626672179 1.015901460126 -0.137382716322 9.756217895150
785 8.148442745209 0.056673969660 0.129182196345 0.047521205142 0.855321934819 -0.049452552292 9.984556928873
786 8.149657726288 0.060639245915 0.139437072630 0.037957980921 0.810012372360 -0.075957683916 10.114927618504
787 8.151722192764 0.068148736010 0.135447990212 0.030729529222 0.853087202087 -0.203423956465 10.198625832796
788 8.152587890625 0.070804631664 0.145969773494 0.020844407888 0.907344831750 -0.267745612711 10.181122777462
789 8.153825283051 0.078697733470 0.139437230755 0.010126216475 0.949986455888 -0.246200633012 10.163040847778
790 8.156006336212 0.087084776757 0.136430954648 -0.000177485935 0.853733100146 -0.148517121412 10.125044471025
791 8.157951831818 0.083991215545 0.136851709133 -0.013680624190 0.651637832075 -0.003922107265 10.057138416767
792 8.159096479416 0.091794568822 0.121896553262 -0.019385996377 0.579394093975 0.149560392592 10.003510093689
793 8.160255670547 0.097299422664 0.123290701448 -0.027932960406 0.614116322324 0.247374772187 9.996142601967
794 8.161482572556 0.098327494391 0.125448702491 -0.041004079609 0.677161293849 0.223912581839 10.070984623432
795 8.162605762482 0.097727708901 0.120789984862 -0.052146254590 0.755931036249 0.135650752774 10.172271262407
796 8.163465738297 0.101816060649 0.111799286180 -0.050318152627 0.822814924121 0.120562378233 10.286374998093
797 8.164548397064 0.100273291429 0.118261013801 -0.048092386617 0.822753162906 0.225349699538 10.436531496048
798 8.165344715118 0.094434468865 0.121440262221 -0.068566090804 0.788861458451 0.335663507581 10.558000384569
799 8.167162895203 0.094922368299 0.125222250574 -0.081238497341 0.704702191204 0.472108650282 10.716752289534
800 8.170134067535 0.085124049371 0.121093002660 -0.085340098315 0.636153601035 0.526298963875 10.757196310759
801 8.172029256821 0.078599005095 0.125594677008 -0.081884272293 0.644147841185 0.480921939164 10.679360514879
802 8.179659843445 0.075692614174 0.124549219833 -0.079597923530 0.724080010056 0.434101894721 10.576538397074
803 8.181564331055 0.074519092239 0.126420431716 -0.085456029046 0.786697111577 0.290600386988 10.507390394211
804 8.184930801392 0.076973003769 0.129771578862 -0.088156382845 0.773951058537 0.208789873179 10.461324859858
805 8.186530351639 0.081531220357 0.127723691207 -0.095874814573 0.693694515377 0.287028469127 10.466961575747
806 8.188630342484 0.077737172877 0.123647198849 -0.106633178106 0.587592475042 0.549102483653 10.454339776039
807 8.189605474472 0.071910883814 0.133129783385 -0.105344774060 0.559689050317 0.765447672084 10.440886502266
808 8.190580844879 0.058578154807 0.132133186893 -0.100894490398 0.634275109917 0.831204509139 10.465479891300
809 8.191312313080 0.055470349845 0.135181424432 -0.105775581979 0.653480289727 0.677279919237 10.407432242632
810 8.191991806030 0.051803971811 0.131898554078 -0.105305251085 0.640865799040 0.522073071487 10.302916771173
811 8.192725896835 0.055091140672 0.136038912368 -0.102110647877 0.571924824156 0.402896839678 10.289388653040
812 8.193457841873 0.058803104534 0.132868793598 -0.101767058485 0.453784243874 0.514130250290 10.290042371750
813 8.195303440094 0.051478117406 0.126369299023 -0.100885169335 0.318191552125 0.814141383693 10.242403936386
814 8.197336673737 0.044503856111 0.118540371077 -0.084958151080 0.274024645239 1.072033560947 10.162870109081
815 8.198355913162 0.032449862627 0.113977643760 -0.068694509264 0.275096805319 1.044773037583 10.136866371632
816 8.199594497681 0.022940629836 0.119831463251 -0.071982206597 0.296684414875 0.825149132609 10.103602731228
817 8.200174093246 0.016495598986 0.117183032771 -0.076428936603 0.235050979480 0.604189613946 10.096977835894
818 8.200690984726 0.019915923822 0.110841255589 -0.071283409771 0.139765867833 0.405909982994 10.094206255674
819 8.201951026917 0.011442768886 0.111091775824 -0.066353777919 0.037071520826 0.491196556874 10.034768139124
820 8.205841302872 0.008114212836 0.099591563802 -0.066780432971 -0.073901770916 0.713279837295 9.984872678518
821 8.212988615036 0.002988321876 0.090133139131 -0.061509983078 -0.107072815178 0.928544058278 9.938452802896
822 8.217823743820 0.000604554082 0.085231216638 -0.040738154652 -0.033338882192 0.984078939110 9.862028524876
823 8.227311372757 -0.012068380796 0.078471722640 -0.048214026500 0.049861967023 0.879785734937 9.883694797754
824 8.241627454758 -0.016006380455 0.080388507867 -0.055553477921 0.121850419343 0.667962819636 9.949544970989
825 8.250873804092 -0.014331135616 0.079806457366 -0.062555161454 0.088823819580 0.471163411327 9.981014685631
826 8.256910800934 -0.012944448442 0.070090296958 -0.064623305777 -0.014271650990 0.452367500067 9.949309912920
827 8.267085313797 -0.016346620090 0.060988885676 -0.048808639631 -0.048903160701 0.524115065373 9.822640510798
828 8.280580759048 -0.026943523240 0.061147510209 -0.040058640777 -0.007892138857 0.584995909296 9.700937733650
829 8.287865638733 -0.024992639148 0.055389939024 -0.041027748453 0.047573618065 0.567343567237 9.627004369497
830 8.296827077866 -0.025500262619 0.059602560526 -0.041870576520 0.103654624270 0.429814314209 9.633666102290
831 8.308774471283 -0.017209788050 0.060983630094 -0.044783217548 0.098188985121 0.253414123692 9.762966166735
832 8.318605661392 -0.004361865153 0.052260537490 -0.053106078653 0.048724761237 0.163114677016 9.895326079130
833 8.327196598053 -0.001816199272 0.055151086764 -0.060832574765 0.027434605937 0.212422967535 9.925564370155
834 8.339705944061 0.007080491775 0.056106608157 -0.063393691012 0.070759381293 0.299798495751 9.835774526596
835 8.348979234695 0.006811435522 0.053126093973 -0.057986779081 0.105976160746 0.343741984181 9.762633460164
836 8.357340097427 0.004843965450 0.049087089768 -0.044270409235 0.098166656066 0.292988298498 9.758062106967
837 8.367182731628 0.006253101719 0.049886308572 -0.029162985048 0.063306876537 0.129491743483 9.791090104580
838 8.382964372635 0.017902628133 0.044128708259 -0.027509886058 0.023537155765 -0.072173717692 9.882041205168
839 8.387125015259 0.022746094240 0.043668809468 -0.032680375864 -0.099068607353 -0.128317010449 9.951832401752
840 8.397284030914 0.033470727174 0.035776531577 -0.033476652707 -0.120143461777 -0.053618867034 9.886750552654
841 8.412009239197 0.043762665090 0.032333519938 -0.026212206722 -0.050325331455 0.150939860400 9.758884810209
842 8.420118093491 0.042468730824 0.030666949098 -0.023811292097 -0.032150734824 0.272179611158 9.702877839804
843 8.427006483078 0.045832640337 0.024213079882 -0.024974752276 -0.019453067493 0.307951177172 9.684496532679
844 8.441874027252 0.053393966366 0.016843265304 -0.013959001506 0.016055011792 0.143060390130 9.686042536497
845 8.452971220016 0.061130087310 0.012698024898 -0.002973791003 0.016248913229 -0.053297439194 9.735018230081
846 8.457403898239 0.071139415980 0.003073060853 -0.025208284456 -0.016772742667 -0.152196646314 9.691350638866
847 8.467172622681 0.077282121870 0.003284209216 -0.024660341143 0.012533664352 -0.090884899143 9.603899096847
848 8.480157375336 0.081602310113 0.008234562750 -0.018153893221 0.057773820818 0.125441331519 9.493477352858
849 8.487881898880 0.083431643788 0.004127293456 -0.025787388835 0.034033490298 0.378252506778 9.463926109672
850 8.497343301773 0.085113721300 0.002349918470 -0.028539940592 0.054758283799 0.459911760427 9.515438910127
851 8.512836217880 0.080174597775 0.003848580905 -0.025422637715 0.098837889014 0.385171151608 9.509391719699
852 8.519797563553 0.087495253104 0.004070669294 -0.028759045929 0.158869068548 0.277069984786 9.489973701239
853 8.527386426926 0.088886072339 0.003835525694 -0.038095782863 0.214182778448 0.291045999639 9.481682934165
854 8.543618440628 0.093519298523 0.004549197730 -0.046394263560 0.274023037255 0.390804943889 9.481186505556
855 8.550791025162 0.088855870428 0.002365690158 -0.048837942726 0.245525846053 0.565184190497 9.453818612695
856 8.557471275330 0.080828570270 0.000669458101 -0.046658590621 0.239330830704 0.711518875211 9.468982197046
857 8.567763805389 0.076963832508 -0.001256928031 -0.038985374375 0.218748796061 0.743831246719 9.502372137308
858 8.584300994873 0.077895364645 0.001925291999 -0.039957378238 0.284286819343 0.691510872692 9.509336755872
859 8.587421178818 0.076151934560 0.009403388782 -0.057511537984 0.360644603558 0.652187689617 9.491377617717
860 8.597324848175 0.078496082241 0.018649278634 -0.057444338940 0.383880415298 0.568366025984 9.464490365982
861 8.615924835205 0.075618628230 0.019721467289 -0.066251612402 0.273304432724 0.581550839469 9.421713890433
862 8.620069980621 0.069912705726 0.014419908346 -0.057096130627 0.135672707241 0.615759170651 9.453302303553
863 8.626203298569 0.063754965459 0.016507095311 -0.050314736290 0.077520439094 0.636589291692 9.500519739389
864 8.638926982880 0.055984797666 0.006580611757 -0.035925231673 0.107180668898 0.662714212686 9.516757457256
865 8.651309013367 0.046415069506 0.004622801885 -0.024334867487 0.230251676235 0.697924683541 9.522004163861
866 8.656379461288 0.036416601539 0.007332790918 -0.014731838371 0.350570874251 0.705711420625 9.530237043500
867 8.666553735733 0.030541458034 0.011557978691 -0.012878793199 0.354489093460 0.666754565611 9.537747792006
868 8.679063320160 0.023465076995 0.008271272241 -0.012762835420 0.232255242951 0.575817790702 9.540859095454
869 8.687078952789 0.021915868335 0.004995278253 -0.008144182761 0.124366494510 0.578499798886 9.482295137644
870 8.696353912354 0.014805283360 0.004782605074 -0.002419447000 0.101091095293 0.645501544699 9.396485493779
871 8.712454557419 0.011040075002 -0.004740883951 -0.003297613187 0.161525495164 0.692682508528 9.332327504754
872 8.717749834061 0.005330548388 -0.006701533314 0.002598977607 0.203143198751 0.598617253974 9.368967327476
873 8.726279735565 0.005732029285 -0.010748946762 0.010046410068 0.134420105740 0.367160229050 9.359536353350
874 8.738170623779 0.006950153966 -0.020098835135 0.018765219768 0.027928030996 0.145985779529 9.362773956656
875 8.750334739685 0.009200386207 -0.030166303941 0.014899076565 -0.115948970765 0.048956863722 9.360802275538
876 8.756226301193 0.007978993432 -0.037260082913 0.003239193471 -0.204709996730 0.073912021816 9.301381700635
877 8.766220092773 0.009794132771 -0.048816500118 0.011464632814 -0.219464513529 0.119195975298 9.238661541939
878 8.778699636459 0.012376834147 -0.058829032904 0.007323880251 -0.224131815881 0.103728993544 9.258880628943
879 8.787074804306 0.014312174117 -0.053645743280 -0.004632140114 -0.206623004694 -0.002844513100 9.210843998194
880 8.796113491058 0.018601387508 -0.054214140920 -0.020721020306 -0.192722090017 -0.106255730744 9.265061720610
881 8.811360359192 0.030005692441 -0.059760123955 -0.045337949842 -0.195589381848 -0.146963379169 9.418226611018
882 8.818139791489 0.032492387900 -0.050870167664 -0.066301500899 -0.199207474440 0.006528601286 9.599707812667
883 8.826341629028 0.039584881064 -0.052098671391 -0.093187368783 -0.219783588778 0.165965815913 9.648029787540
884 8.838007211685 0.043371975197 -0.047855631596 -0.109057811509 -0.273531852867 0.322048156299 9.634408113956
885 8.848165750504 0.036743812491 -0.057345294315 -0.114298762731 -0.257426720615 0.397205671594 9.629907512069
886 8.856656551361 0.032707856357 -0.061263316104 -0.104156446615 -0.205505492147 0.320690688640 9.556437832117
887 8.866548061371 0.034529167260 -0.072370986504 -0.096044724251 -0.106385474978 0.097312441813 9.447095484138
888 8.885113000870 0.039904972221 -0.074364653863 -0.102541830303 -0.057664610362 -0.069662608090 9.412064815164
889 8.888452053070 0.043040332579 -0.083889432857 -0.110062705412 -0.092438833248 -0.070253478368 9.317301914692
890 8.897273540497 0.047500844444 -0.092475356021 -0.109095903035 -0.119524241639 0.130297270529 9.200649962425
891 8.911673784256 0.051503621335 -0.110150764498 -0.097511368675 -0.145520386845 0.348158715069 9.166080054045
892 8.920356035233 0.043808400721 -0.104419425450 -0.094165414693 -0.065427858084 0.435777560547 9.171259517670
893 8.926331043243 0.045425118433 -0.105986579238 -0.098031916799 0.059012329616 0.284260196239 9.206179674268
894 8.940760612488 0.051408063786 -0.105374959327 -0.107803795531 0.208999696858 0.092657601340 9.308449230194
895 8.951942205429 0.064111521117 -0.092389960096 -0.117589605923 0.318898115046 -0.089931665948 9.444689354897
896 8.956848382950 0.070448908244 -0.087273703069 -0.146653373657 0.342145073041 -0.102003251798 9.542886325121
897 8.966383457184 0.085392662457 -0.088094947048 -0.160891847911 0.307862920761 0.043385650353 9.523699271679
898 8.982597589493 0.087464185666 -0.075039865068 -0.171409886123 0.287167815585 0.244814879447 9.501379280090
899 8.989863157272 0.091681717371 -0.064619456677 -0.173486286246 0.359019991234 0.320982062705 9.512049279213
900 8.996814966202 0.094746233482 -0.054597340672 -0.186655867508 0.503206810914 0.327946315818 9.553554570079
901 9.007514715195 0.101839612980 -0.043523213619 -0.194675677525 0.642862623185 0.251734638903 9.722467766404
902 9.018798589706 0.109663073123 -0.031550604673 -0.198925683151 0.774455746338 0.142096019816 9.932469931841
903 9.026586532593 0.108395982688 -0.015387266242 -0.204547732725 0.742674521282 0.148234445080 9.987453639507
904 9.040467262268 0.108510082496 -0.007743400944 -0.195413456371 0.676111280099 0.253342988659 9.934914067984
905 9.054836511612 0.100485262407 -0.003313990067 -0.187637641844 0.671805536672 0.348120781258 9.824301120043
906 9.058152198792 0.090212393141 0.007141629527 -0.167352260597 0.729602193609 0.479086388536 9.815156074762
907 9.067472934723 0.082335045597 0.022058233020 -0.153831957664 0.767830924094 0.478965716623 10.013301841021
908 9.083925485611 0.085476219136 0.029083568752 -0.144266132700 0.709991290122 0.388624699898 10.168488113880
909 9.089660406113 0.084251015232 0.035069408212 -0.135182780979 0.641006205305 0.311432170831 10.101715250015
910 9.096296548843 0.077451507238 0.041284423087 -0.121395970523 0.587609176151 0.300201697815 9.941707363129
911 9.109498262405 0.070017750786 0.046951321959 -0.109369834120 0.534489012659 0.376154745072 9.811170612574
912 9.123176336288 0.056030504168 0.049207081820 -0.098264793592 0.496375983953 0.470393040664 9.742978044748
913 9.126937389374 0.049899582766 0.059909427424 -0.079347694579 0.425977736749 0.465136320703 9.764109297395
914 9.138204574585 0.052437720926 0.057579465237 -0.078726329162 0.387758800350 0.373753585964 9.748332340121
915 9.152901172638 0.051872202830 0.065607431185 -0.075113692887 0.385993964486 0.319145963900 9.696093315482
916 9.157023429871 0.061213261159 0.064881228768 -0.074459470720 0.410235168412 0.360055021495 9.637326459289
917 9.167138814926 0.068937926349 0.076308062379 -0.079247884295 0.401806443594 0.497028021589 9.581429416537
918 9.182543277740 0.071611702632 0.082895499526 -0.089419445249 0.320176243298 0.662126859874 9.521348690987
919 9.189125299454 0.064551392105 0.090335705822 -0.089144523800 0.209339145999 0.752324546725 9.578749637604
920 9.196647167206 0.066145968130 0.080919017879 -0.082363782770 0.156794348527 0.732844620869 9.618710094094
921 9.211486101151 0.070216164609 0.084339781720 -0.072643943871 0.209115270730 0.673892846480 9.631825398803
922 9.219238281250 0.078057442965 0.078002182372 -0.070795610206 0.244672755562 0.527846941128 9.586946264505
923 9.225993394852 0.075961443641 0.087187233557 -0.065324212325 0.303037926313 0.513321945816 9.407053751349
924 9.239393472672 0.072297965956 0.083532694107 -0.056624563861 0.274956271145 0.591171884649 9.289020686746
925 9.247943878174 0.070509719863 0.082056528882 -0.037046747065 0.165847610794 0.735998901352 9.313961400390
926 9.258486270905 0.067483303600 0.071668611056 -0.022409566386 0.094781035976 0.922685002014 9.314497005343
927 9.266114950180 0.056692503597 0.064392584481 0.001961029722 0.200332807638 1.075949733630 9.350678406358
928 9.285595655441 0.044971482231 0.067558296552 0.021769138562 0.367760738097 1.072833606228 9.434630389810
929 9.287903070450 0.037470426866 0.067306066068 0.029527407434 0.492850112915 1.000313002467 9.466348026395
930 9.297044992447 0.039386737718 0.068620627350 0.028602606021 0.507362902164 0.982908618897 9.330506097078
931 9.307998418808 0.032908022042 0.077540456818 0.050852295356 0.600177729651 1.088505167440 9.318066730499
932 9.319722414017 0.030459549186 0.088596620018 0.051538837479 0.586315772049 1.219562247097 9.211855566502
933 9.326200246811 0.010832870666 0.087933567808 0.045973363433 0.472723448463 1.284445583224 9.177496157885
934 9.336016893387 0.016494507714 0.085653935204 0.071368897242 0.520228238404 1.150604498014 9.177541181445
935 9.346945524216 0.016302304465 0.078737747465 0.090482670702 0.523935409673 1.108076309860 9.114917501807
936 9.356533288956 0.001531406312 0.075158458960 0.088852965918 0.604127268009 1.198161876351 9.175870047212
937 9.366554498672 -0.015274896448 0.064305865298 0.129561913183 0.821581673250 1.288570793867 9.480074949861
938 9.387316942215 -0.034315275893 0.069159530480 0.169594009734 0.854789692014 1.343975354880 9.855746276379
939 9.389094829559 -0.044722268610 0.065671467726 0.176953106130 0.764969296753 1.351356733739 10.013429310322
940 9.396241664886 -0.055685616484 0.071011126517 0.187824046475 0.744766801223 1.368740213513 10.003174463511
941 9.410582780838 -0.069190502211 0.078406949568 0.194539074006 0.782481196001 1.489067579359 9.874685407877
942 9.422049522400 -0.075588168325 0.077377920768 0.192932122604 0.725716426447 1.554759877771 9.778029178977
943 9.426375865936 -0.083371922401 0.073207194119 0.197617671581 0.742308777943 1.521282229275 9.722715688348
944 9.439306735992 -0.094173578946 0.072954734770 0.211193917542 0.783744925484 1.430683423430 9.757297875881
945 9.451376199722 -0.101005352801 0.070342223675 0.214747173647 0.820907927826 1.155084927008 9.861375975609
946 9.456613540649 -0.104755374899 0.069429258764 0.208724867606 0.842224756479 1.016362147629 9.769362435937
947 9.466166734695 -0.104866012598 0.066095218267 0.204884922209 0.830460158587 0.968773705959 9.618317745924
948 9.477746009827 -0.105482376265 0.073596889488 0.181843086010 0.684282471612 0.985951875374 9.562017830014
949 9.489020109177 -0.108478732097 0.079322810667 0.162456388473 0.450129624456 0.924514449611 9.510140748024
950 9.496251821518 -0.108314440025 0.072374565127 0.148902546355 0.233746593576 0.905726395547 9.537855965495
951 9.514614105225 -0.101311474846 0.065153337252 0.144486442701 0.265480145551 0.955517556444 9.554098945856
952 9.521919488907 -0.104390863047 0.058417740963 0.125458065167 0.463048718534 1.120817027315 9.533749465942
953 9.526183605194 -0.104298825865 0.057416259235 0.108950161544 0.629341521710 1.260159611553 9.556037882566
954 9.538365364075 -0.112083312310 0.060346077652 0.091337994820 0.687989825606 1.421578870118 9.584089899659
955 9.550914287567 -0.115891333063 0.059595216027 0.079896239184 0.577731511295 1.496456121057 9.675003578067
956 9.556064844131 -0.129444426167 0.049983572209 0.066786537435 0.443727325313 1.303031835258 9.773700485229
957 9.566669464111 -0.137377508678 0.054928983290 0.066801176499 0.334281664342 0.970012877136 9.826748764515
958 9.584752082825 -0.139544381377 0.038664059828 0.066842775907 0.557923118100 0.619319247901 9.919356966019
959 9.587941646576 -0.136820433635 0.040728816943 0.059237099923 0.631441622302 0.628620852381 9.818898292780
960 9.596502304077 -0.143098602878 0.050171920116 0.021493380714 0.367502327710 0.603526832052 9.767543367147
961 9.611171245575 -0.152197442545 0.052310147188 0.027592754061 0.161310006995 0.587519202121 9.628621709347
962 9.621414184570 -0.152184126740 0.037783560515 0.053761956972 -0.025603808456 0.564590698108 9.539369224906
963 9.626558065414 -0.141354298943 0.018414633336 0.034335884182 -0.135393776782 0.522634769641 9.458349620104
964 9.637726545334 -0.139444046783 0.007132940964 0.021360819791 0.075354438554 0.400424454175 9.412709178329
965 9.652389287949 -0.125312548380 0.003525296815 0.026123038679 0.268636490833 0.256755789164 9.444123344421
966 9.657334089279 -0.121050250602 0.005000961917 0.016664288395 0.269979852084 0.059406103045 9.544200779200
967 9.666647672653 -0.106829344888 -0.010737333923 0.004749759247 0.259169172607 -0.076934666857 9.612139577866
968 9.683245897293 -0.096619958724 -0.011882348591 0.000185985067 0.219416200910 -0.027387972109 9.737293966413
969 9.688053131104 -0.085388909064 -0.014243380297 -0.016598648756 0.139146519788 0.209639893882 9.823516423702
970 9.696715593338 -0.082321363607 -0.022236217486 -0.023207247631 0.040791779808 0.456571611576 9.835072860718
971 9.713814735413 -0.078250513822 -0.033218513335 -0.016262146909 -0.060518759661 0.517954000421 9.757868564129
972 9.718391180038 -0.072020622695 -0.047648083962 -0.008928721930 -0.088209268078 0.328661430292 9.638415210843
973 9.726216316223 -0.062600451837 -0.054710341926 -0.022229680257 0.031584706076 0.194568512812 9.536006491184
974 9.738014459610 -0.050783207132 -0.059317477454 -0.034556755944 0.115499877194 0.095600651158 9.444520955086
975 9.754498004913 -0.046527396647 -0.065803310844 -0.039476536181 0.113407432800 0.012210775850 9.403460052609
976 9.757900714874 -0.033066401064 -0.077623247839 -0.030758784463 0.031079915492 0.008249322649 9.365309894085
977 9.766911506653 -0.031234506177 -0.083848911197 -0.033910402586 -0.044886502703 0.013192121362 9.381516036987
978 9.781020402908 -0.014852117545 -0.093767987835 -0.033764492568 -0.057522577839 -0.006943147177 9.399830101132
979 9.787090301514 -0.005355129053 -0.098491636660 -0.047681956043 0.061542730462 0.039972895528 9.435065422654
980 9.796177387238 -0.001430266008 -0.100674804576 -0.041746252671 0.217523365840 0.166742088608 9.588275336623
981 9.810987949371 0.011347635778 -0.111655400579 -0.034302082843 0.345163113400 0.273500058632 9.702064492106
982 9.821541070938 0.014228461393 -0.108090293407 -0.031905936941 0.409409614652 0.399294954836 9.742198610902
983 9.826529264450 0.024019174707 -0.108042597857 -0.037449404538 0.400535989814 0.615575568080 9.669683781266
984 9.836355447769 0.015829277122 -0.116414036684 -0.036211646326 0.478095285483 0.827133969963 9.598752962351
985 9.847425222397 0.015010969902 -0.114943730413 -0.019700270191 0.659319830909 0.904510759413 9.633405901194
986 9.856423854828 0.010539489142 -0.111481421259 -0.007857644833 0.823283359185 0.849088583663 9.743092650175
987 9.865782976151 0.014251106585 -0.102759019412 -0.002383888078 1.026008226201 0.687234511524 9.844787424803
988 9.879094839096 0.015739088547 -0.085040858877 -0.011805975164 1.163965605050 0.580487523302 9.860896503925
989 9.886939287186 0.022468289088 -0.074405300359 -0.018807953101 1.157666253448 0.464374793954 9.876089909077
990 9.895378828049 0.024300887216 -0.065170518802 -0.003673742038 1.171871406063 0.389191441275 9.785272125006
991 9.911193609238 0.022124720502 -0.046200843163 0.008634100892 1.227984284163 0.384366611280 9.792786381841
992 9.921693563461 0.019869738783 -0.036732573119 0.006710216156 1.215108934566 0.397409373969 9.832007750273
993 9.926248550415 0.020844464064 -0.029727390026 0.015852930361 1.291716157347 0.377700164169 9.905330665112
994 9.935284376144 0.019199749870 -0.015457112843 0.029434725267 1.392506952435 0.349036637954 9.937054148912
995 9.952321529388 0.027029168837 0.007059596363 0.029165995669 1.432775118649 0.333228032626 9.905600806475
996 9.956170797348 0.036255193171 0.019377257879 0.011036785582 1.479321294129 0.352102113850 9.858081654310
997 9.965549468994 0.036432260094 0.040055727945 0.012640179167 1.488896840662 0.361367794499 9.782211107612
998 9.977517366409 0.049635151675 0.061563312879 -0.005620993673 1.391347741932 0.348173844740 9.738561058044
999 9.986241817474 0.052528925871 0.079922304873 -0.034384143574 1.271824952960 0.369128474928 9.694215774536
1000 9.995974779129 0.064986843911 0.094443082526 -0.045597911815 1.232109056264 0.302001269795 9.702653306723
1001 10.011979341507 0.071489188900 0.112108046419 -0.053350128238 1.242599399686 0.217451865356 9.646225336790
1002 10.019296169281 0.080042787946 0.126975700803 -0.064995694760 1.214278045222 0.186810353994 9.552004473209
1003 10.025410890579 0.085015492267 0.143640223265 -0.078363889583 1.064754508361 0.162260453627 9.381552289724
1004 10.036805629730 0.091075848223 0.145790509463 -0.087012913019 0.827318595797 0.117811692674 9.227145450711
1005 10.050225257874 0.100648505860 0.142526888771 -0.088085725852 0.654524310082 0.142019942058 9.087967100143
1006 10.056401491165 0.109370017212 0.145313054614 -0.086025238117 0.604890731648 0.204274013713 9.019654664397
1007 10.065363645554 0.119434910242 0.148621266610 -0.093613790808 0.594094761573 0.309880867973 9.092710946202
1008 10.078871250153 0.124128923078 0.138156558199 -0.100782121645 0.560427882560 0.493018366545 9.269053614736
1009 10.086087226868 0.126555612108 0.144546447050 -0.091467183100 0.671043425202 0.746516653597 9.412420910597
1010 10.095609903336 0.119406223004 0.152376290457 -0.101156636996 0.672086422294 0.962628282309 9.446090347767
1011 10.108350038528 0.109376966398 0.150670402621 -0.117123519443 0.640992610529 1.092929097712 9.502335299850
1012 10.119713544846 0.104296237605 0.162649917060 -0.084057453355 0.771755355969 1.122908283994 9.538333683014
1013 10.125513315201 0.098908429693 0.176151827537 -0.088852391674 0.747223508880 1.152513321564 9.572206603289
1014 10.137138843536 0.097034562971 0.179188130785 -0.120171399120 0.717227073312 1.154651502147 9.550394734740
1015 10.148888826370 0.085670588284 0.192665157350 -0.114651931181 0.866299862936 1.094525606856 9.497500821948
1016 10.157398700714 0.087165886657 0.214372699908 -0.101957799076 0.964744097292 1.038314568624 9.482557677627
1017 10.165933609009 0.079101718363 0.231871249522 -0.145216232064 0.800003474057 1.093693182617 9.457135153413
1018 10.179620027542 0.082073631369 0.239587009766 -0.171651634571 0.592620239966 1.175286691636 9.502193797231
1019 10.187573194504 0.075210340667 0.257613564356 -0.167820494251 0.358458621986 1.348903680593 9.554698870182
1020 10.195699453354 0.069377081612 0.271131370575 -0.181485822950 0.058060147092 1.554524088800 9.605646244884
1021 10.208460807800 0.053246951552 0.274545692895 -0.199038717694 -0.053041582396 1.653611443788 9.666068447828
1022 10.216885089874 0.045140567993 0.279777822397 -0.198106827695 -0.005851981933 1.667586435378 9.695323821902
1023 10.225136995316 0.033525388555 0.283191662019 -0.209414992513 -0.002145214516 1.669701665640 9.706973814368
1024 10.235481500626 0.017218725244 0.294109823540 -0.217868215352 -0.015873119988 1.661741850972 9.636545271277
1025 10.249011516571 0.010117105552 0.292400273857 -0.214247547982 -0.081654877374 1.638637601584 9.562971510887
1026 10.256134033203 -0.005900721295 0.293553589057 -0.218100609447 -0.214342571888 1.597898003608 9.464209699631
1027 10.265556812286 -0.017230291270 0.296303535909 -0.233328348178 -0.413438090421 1.545135799348 9.321254047751
1028 10.276936769485 -0.028610187707 0.288882637531 -0.234921501077 -0.587403390706 1.479348045141 9.236903868914
1029 10.287201404572 -0.044855692980 0.282483460906 -0.231549523018 -0.765876784623 1.434525044113 9.160241024494
1030 10.295696258545 -0.057777350589 0.267966436646 -0.226544727605 -0.916441783682 1.425813277513 9.138100542426
1031 10.307549953461 -0.070670275187 0.265522736674 -0.222654764714 -1.013632155731 1.363397904932 9.173210148811
1032 10.319686651230 -0.087928690894 0.249491588821 -0.220349099711 -1.095115737095 1.305704889894 9.189533236027
1033 10.325578689575 -0.103167456777 0.235612208550 -0.219395388435 -1.236878922433 1.252360741496 9.232664052844
1034 10.335599422455 -0.115306028512 0.213284798603 -0.219044916435 -1.380202071816 1.238607505560 9.349883769751
1035 10.347630262375 -0.123816026617 0.191474840856 -0.206444719014 -1.390942822248 1.275280218869 9.362968668938
1036 10.355541944504 -0.133409939609 0.169086627612 -0.204414940855 -1.381815318614 1.322050196528 9.380032598376
1037 10.365610122681 -0.146546697410 0.146831688936 -0.210216837027 -1.373686811775 1.289762748778 9.435178858638
1038 10.380271673203 -0.153468868939 0.124508506758 -0.211359100108 -1.346881567240 1.191724895909 9.514908567667
1039 10.387674570084 -0.154071925123 0.111870101298 -0.212381903770 -1.407710882574 1.167094303966 9.594050046802
1040 10.396367311478 -0.163538747074 0.098066920723 -0.229647093893 -1.573907901049 1.255729907155 9.625127413273
1041 10.408494710922 -0.167233699994 0.070727075420 -0.234327632798 -1.777762742490 1.386118869334 9.632185002565
1042 10.417409658432 -0.176241809092 0.051658492475 -0.235682516003 -1.931127461493 1.431590618938 9.511938182116
1043 10.425843954086 -0.175692265801 0.023396902151 -0.224421589005 -1.945438083261 1.325587615818 9.388866571784
1044 10.435753822327 -0.180232705788 0.014176310249 -0.232512938187 -1.766017732769 1.196028519720 9.372990211844
1045 10.453737974167 -0.183296323082 0.007381919998 -0.248069011391 -1.563799526989 1.077380985841 9.424838057756
1046 10.457458496094 -0.178547940148 -0.010345534033 -0.266059047384 -1.467321638167 1.021646349505 9.478993214965
1047 10.465966463089 -0.180002375643 -0.019029072453 -0.280605699311 -1.442729418576 0.973178559691 9.558168023229
1048 10.479027986526 -0.177883065337 -0.028745026882 -0.289443133072 -1.544526373297 0.977241058946 9.613919470310
1049 10.489034652710 -0.176770746174 -0.040624212969 -0.295100452886 -1.562808570117 1.000291075408 9.561784526110
1050 10.496755599976 -0.178638820521 -0.054166778264 -0.288720051547 -1.417709182799 1.019050624296 9.526273800731
1051 10.509828090668 -0.178263797505 -0.059102235781 -0.282206325705 -1.192891488522 0.911349297389 9.577700062394
1052 10.521732091904 -0.181398737582 -0.057391616673 -0.290353867586 -1.158294902220 0.680161207840 9.604101995230
1053 10.525975704193 -0.179694148037 -0.065015809949 -0.305432053177 -1.265088814348 0.487483721115 9.562135943770
1054 10.537103652954 -0.169908129585 -0.074247300005 -0.299276589081 -1.391958337426 0.416711105928 9.600013622046
1055 10.550153493881 -0.168635970821 -0.081063019992 -0.285099916808 -1.357819076478 0.507442314662 9.535822888613
1056 10.556963443756 -0.174021265375 -0.086127644983 -0.278088928857 -1.184982398450 0.577025971636 9.530812409520
1057 10.565037965775 -0.171371819565 -0.098450990164 -0.270983814806 -1.009429030940 0.456029172689 9.626212656498
1058 10.579852819443 -0.161191869653 -0.101019475877 -0.267348350246 -0.852432021573 0.252374945562 9.698382500410
1059 10.590054512024 -0.153648615668 -0.097112560302 -0.273907865814 -0.767625686824 0.088733169464 9.718289346099
1060 10.596981048584 -0.146359077711 -0.107735884923 -0.285166828731 -0.757916165963 0.052189355283 9.709620264173
1061 10.607199430466 -0.134740771140 -0.107191559763 -0.282215879795 -0.725191931203 0.118455306664 9.703775972128
1062 10.621999979019 -0.124499094148 -0.112356985401 -0.281935715249 -0.728661595881 0.210734547470 9.586443403959
1063 10.626420497894 -0.117566552935 -0.119577039821 -0.292692289471 -0.698194751814 0.270714883637 9.534322493076
1064 10.635411977768 -0.113277640190 -0.112723477979 -0.297486345617 -0.570516595356 0.328025033958 9.722703993917
1065 10.648310184479 -0.107747569542 -0.109247420256 -0.306577279025 -0.487818181850 0.441914907731 9.631618992090
1066 10.656581640244 -0.110695489132 -0.096616130430 -0.319568311980 -0.336600268073 0.433985169679 9.597199357152
1067 10.665777683258 -0.105979114065 -0.094515104389 -0.318722791624 -0.315502234921 0.289098310377 9.659948167205
1068 10.682956218719 -0.100652941688 -0.095743412540 -0.333283025673 -0.379826942682 0.188589241449 9.616011019349
