# index timestamp wx wy wz ax ay az
0 0.007809638977 0.000113663127 -0.002216983820 -0.003009090371 0.136527487943 -0.431863178574 9.819989383221
1 0.020879030228 -0.001643558423 0.001145615829 -0.000869360135 0.131695065703 -0.448393147588 9.814280161858
2 0.032322883606 -0.000285031545 -0.002979489492 0.001803783323 0.137541952450 -0.466169889160 9.815741965771
3 0.038717985153 0.000307409120 -0.002033923354 -0.002755920239 0.129971955204 -0.461828587353 9.825417938232
4 0.053462028503 -0.000035788336 -0.004654262556 -0.002074223301 0.137479478605 -0.444666424692 9.836736978292
5 0.065448760986 -0.002456090433 0.005235942711 -0.000579095797 0.146679314123 -0.436881222501 9.838912142515
6 0.071462154388 0.001861515532 0.002231356047 -0.000384914943 0.130783658372 -0.456885862872 9.829440822601
7 0.081801414490 -0.001690512632 -0.002473195261 0.000650402130 0.115151511049 -0.431800613366 9.831017231941
8 0.093294858932 -0.003454774801 0.003140398777 0.002397449914 0.146521210894 -0.443398675248 9.805966005921
9 0.111258745193 0.002745153422 0.003929648933 0.001622954815 0.144490865758 -0.444712471515 9.832374955416
10 0.123818397522 -0.004419157967 0.001406230329 -0.003819222675 0.144359413041 -0.446440433376 9.811938936710
11 0.137499332428 0.001583408694 0.000569987018 0.000540730607 0.148827718198 -0.462429900393 9.816391006708
12 0.142894268036 -0.000189617964 0.002597365667 0.000082451940 0.136586197643 -0.465429010391 9.811738961935
13 0.143816709518 -0.002206154585 -0.004262679308 -0.000896879899 0.124628367545 -0.461464488544 9.805753751993
14 0.155928850174 -0.000821380193 -0.005797030701 0.000152781654 0.143384947143 -0.475971759483 9.828133385181
15 0.160949468613 0.001017439108 -0.000105209289 -0.001003053552 0.125538176028 -0.458105007336 9.818079682589
16 0.169928312302 0.001449724379 -0.002923057004 -0.003159818527 0.126273006583 -0.467630669810 9.803128352165
17 0.184489488602 -0.000388731631 0.000402869986 -0.004370766977 0.144217133839 -0.446072680056 9.807331330776
18 0.190082788467 -0.000753356713 -0.000069671636 0.002382404614 0.125185981784 -0.447733545117 9.831969158649
19 0.202256202698 0.001001546291 0.001004655480 0.001240872602 0.128913399037 -0.456347882487 9.830533082485
20 0.208502531052 -0.002472711002 0.003520465674 0.000363863194 0.127287672088 -0.463901425302 9.824727966785
21 0.221844673157 0.002633417430 -0.001654913269 -0.001255892154 0.121456901729 -0.466604008377 9.817632955313
22 0.229129791260 -0.002261708801 0.002723325124 -0.001478568702 0.138937399602 -0.448670926876 9.821117895842
23 0.240819454193 -0.001000718540 0.005390401373 0.001084228341 0.159142754786 -0.440386664830 9.807602056861
24 0.257931232452 -0.000384949175 0.003265029255 -0.000147600502 0.156955950949 -0.462046542317 9.817713646889
25 0.270567893982 -0.000011087309 0.001158624097 0.001239161183 0.119523154423 -0.474188066348 9.815556024313
26 0.271900653839 -0.000010795216 0.001412774969 -0.003189930973 0.144362665555 -0.470961170755 9.818014193773
27 0.284748792648 0.000922269850 0.000109601254 0.001026906659 0.145220461227 -0.457012637816 9.832300111055
28 0.296161890030 0.002054752056 -0.003833597503 -0.002951308098 0.133085853355 -0.450550806709 9.817229497433
29 0.298269748688 -0.001201544293 0.005217470672 -0.000450546584 0.129380372297 -0.438659397326 9.816151270866
30 0.307801008224 -0.000553347008 0.000624053155 -0.001021055572 0.150082448451 -0.453927537203 9.815264832973
31 0.324198007584 0.002654784616 0.001072469535 0.004776566669 0.149601195194 -0.466758411415 9.809798855782
32 0.330945253372 0.002302884549 -0.000654165535 -0.001062392045 0.134123414364 -0.474163983129 9.823842698336
33 0.339241504669 0.001036002563 0.001498811067 0.000778690813 0.131078275815 -0.473840741739 9.842825099230
34 0.350393295288 -0.000496226819 -0.001427342512 -0.002215927138 0.117790277246 -0.450456629992 9.825500968695
35 0.359439849854 0.000320298761 0.000516043572 -0.000411190284 0.120032090591 -0.437198360860 9.832255672216
36 0.369892120361 -0.001651763768 -0.001480253333 0.001964989093 0.144059898555 -0.449174043238 9.812398527861
37 0.382597208023 -0.002117697975 -0.004453965794 -0.003050647128 0.133849298721 -0.446541480571 9.823577234745
38 0.394519567490 -0.003522839373 0.001763443195 0.000777367294 0.137736207917 -0.463027851284 9.819028100967
39 0.398551464081 -0.002017699007 0.009479021517 0.000899794942 0.118518283004 -0.467540293783 9.814286009073
40 0.409415960312 0.000779076958 0.001427891009 -0.000760126187 0.129647964640 -0.439259285107 9.822718863487
41 0.422097921371 0.000564186776 -0.003035438761 -0.000836129658 0.145715921391 -0.453354510069 9.815987548828
42 0.428408145905 0.001200787346 0.002883863543 0.000194359622 0.153790944479 -0.463913887180 9.840173971653
43 0.437841653824 -0.000712251705 0.003754115148 0.000159684189 0.139975883374 -0.471126208417 9.853079946041
44 0.451068401337 0.005795075463 -0.006976026160 0.001645157620 0.131862624977 -0.482976139113 9.828775409460
45 0.461076259613 0.000981538448 0.000012123436 0.003354469595 0.106833225517 -0.442653082162 9.816475206614
46 0.468425989151 0.000236225688 -0.001048182819 0.001641158067 0.146438801698 -0.452741904594 9.821662856340
47 0.480221748352 0.002160967451 -0.006420229642 0.003240614777 0.153403511625 -0.453258140646 9.823176115751
48 0.494592189789 -0.003893594829 -0.000967745016 -0.002314100254 0.141169236135 -0.450253366157 9.832770227194
49 0.498544692993 -0.000247999968 -0.005013846519 -0.001587927485 0.139901112104 -0.458489754125 9.816488070488
50 0.509062528610 -0.000559809920 -0.001628769947 0.001348743240 0.138061048156 -0.461315055639 9.810592907667
51 0.520250082016 0.001132488448 0.001571073758 0.000190615641 0.128361650286 -0.452392606549 9.807734788656
52 0.529923677444 -0.003193579816 -0.000023926454 -0.002065995850 0.148856588826 -0.472942901775 9.820004585981
53 0.538454294205 -0.001755895188 -0.001222746722 0.000478807333 0.144095082348 -0.463201001957 9.826337120533
54 0.551030874252 -0.001287084299 0.003542088774 -0.001773094163 0.140252712490 -0.452040969618 9.816095137596
55 0.560126304626 0.002277166579 -0.006774580390 0.000977406908 0.134953344399 -0.450157142915 9.831908347607
56 0.568311929703 -0.000044431232 -0.000199905431 0.000478239363 0.154329034500 -0.441128457226 9.800511723161
57 0.583594799042 -0.002036475853 0.002716070611 -0.000489137908 0.143892732142 -0.454460839815 9.801719757915
58 0.596856594086 0.004264571868 -0.000994382284 0.002336570416 0.131479056766 -0.478279253505 9.800990025401
59 0.599133253098 -0.001976144461 0.001001778213 0.002344459250 0.144166418379 -0.448452825733 9.814732736349
60 0.608123302460 0.000975801664 -0.000001868671 0.000060276870 0.153708005380 -0.456490152553 9.812083947659
61 0.621785879135 -0.000743072724 -0.001854256338 -0.003921679995 0.124686136208 -0.474207471795 9.807648249865
62 0.629186391830 0.000091694706 0.006252187298 -0.000296033339 0.122854733448 -0.458149519265 9.812183350325
63 0.638018608093 0.002707038229 -0.000812058154 -0.000060077259 0.132132565342 -0.455270825364 9.814768989086
64 0.649386405945 -0.005022925194 -0.003081243311 -0.002656541418 0.130277289497 -0.448599956296 9.804542793632
65 0.660199403763 0.001119135191 0.001344411572 0.001296613682 0.103388822637 -0.464417551719 9.815474163294
66 0.668725013733 -0.000348513607 0.002312757230 -0.000901836071 0.150470721843 -0.463604240566 9.824901044369
67 0.682416677475 0.000167566034 -0.000899744878 -0.001012300170 0.152388754757 -0.461392677426 9.816599167585
68 0.695566415787 -0.000177212906 0.000317564372 -0.001516278959 0.138775833724 -0.459826793075 9.812014950514
69 0.699472665787 -0.005312416526 0.001165951171 -0.004766372275 0.126514724996 -0.473631082512 9.818408296108
70 0.709939241409 -0.001289982177 0.002898896360 -0.000301971129 0.133942041043 -0.444469190799 9.816157118082
71 0.723785161972 -0.003287422434 -0.005224634159 0.000158214444 0.131080103070 -0.444996390380 9.809780144691
72 0.728215456009 0.001074252085 -0.001146642213 -0.001263417015 0.139480386665 -0.455889899321 9.817456369400
73 0.738689661026 -0.001413815527 -0.000889325000 -0.001324839288 0.160732375178 -0.452829722464 9.806945414543
74 0.752332925797 0.002279460694 -0.001726669985 -0.000725207828 0.153655088078 -0.473634737022 9.817567466497
75 0.760735511780 -0.001166740236 0.000910878855 -0.001965011720 0.127829160802 -0.466668583564 9.828602331877
76 0.769868850708 0.000346765388 -0.002021212221 -0.003069958166 0.139138013916 -0.455086893886 9.828161451817
77 0.781552076340 0.000015324121 0.000372701430 -0.001872491579 0.137396667413 -0.450822044425 9.805933261514
78 0.793712139130 0.001854703535 -0.004165860138 -0.001680696517 0.127843988976 -0.465389614776 9.821483931541
79 0.798440217972 0.001336777090 0.000721036691 0.000751975718 0.134304065919 -0.464042818286 9.830617282391
80 0.809455633163 0.001076771490 -0.002123368116 -0.000016891517 0.129186509689 -0.459625612311 9.823547998667
81 0.819814443588 -0.002855677728 -0.000637610829 -0.002397003366 0.133182195369 -0.451705266349 9.833399387598
82 0.829442739487 -0.002647625030 -0.003868826911 -0.002031107529 0.127175844088 -0.459530485421 9.832453308105
83 0.839404582977 0.000849405412 -0.002686526167 0.002583724248 0.142087504808 -0.453995474540 9.833004115820
84 0.850575923920 0.000790050924 -0.005530706790 0.001711737038 0.151555352937 -0.428362962194 9.822965615988
85 0.857426404953 0.000370171979 0.001132101327 0.001909278572 0.125989279579 -0.454483972862 9.809702961445
86 0.867691993713 -0.000568810052 -0.001898035949 -0.002157852021 0.126497338666 -0.457715436593 9.823410004377
87 0.877332448959 -0.001308270733 0.001516083643 0.003365225229 0.153395489976 -0.473125298359 9.830018527508
88 0.891663312912 0.001645455015 0.002009809522 0.000673706285 0.135187223889 -0.449691083282 9.805931507349
89 0.898616552353 -0.001438387609 0.002001684930 -0.003862382009 0.148303095046 -0.454109458700 9.815655426979
90 0.907157421112 0.000596229168 -0.000936602611 -0.000289391236 0.140931912269 -0.431731762402 9.824606344700
91 0.919644117355 0.000467589352 0.000044374312 0.001566419338 0.142734243404 -0.452875074930 9.799556288123
92 0.928961038589 -0.001684862257 0.002050118572 -0.002856560421 0.134489395246 -0.463556037582 9.820961190462
93 0.937298297882 -0.000455671966 -0.004433729411 -0.000155926375 0.131275454890 -0.458726164363 9.810672429800
94 0.949928283691 -0.003371615255 0.002534997503 -0.001595248317 0.126004400114 -0.458764938712 9.806998039484
95 0.962377309799 0.000469393650 -0.001595709689 -0.000527223387 0.133366382662 -0.479801539555 9.813988970518
96 0.967815160751 0.001516800148 0.002174244505 0.004429913080 0.132364133354 -0.482374533713 9.803295582533
97 0.977190256119 0.000828747253 -0.004518394007 -0.000006411839 0.122069096072 -0.474091477655 9.824151431322
98 0.989055871964 0.002769731746 -0.002736765245 -0.003773024892 0.128710500654 -0.455442221873 9.844043658972
99 0.999280929565 0.000879018775 -0.000906128012 -0.002078501653 0.144663139349 -0.469652746618 9.830983318090
100 1.007183551788 0.002516580080 0.000212463884 -0.003511486088 0.144438039819 -0.464250357896 9.821709634066
101 1.022019863129 -0.002252964062 0.000500182940 0.001202252085 0.140979822893 -0.473249478601 9.805894669890
102 1.031581163406 -0.000223854928 -0.003837286137 -0.001673609101 0.110407153359 -0.476133471541 9.811074718237
103 1.037389993668 0.000059797992 -0.001036421348 0.002006951696 0.124274766315 -0.464828574434 9.810197635889
104 1.051512479782 -0.001440087715 0.002835561499 0.002257587403 0.157903967332 -0.448346077502 9.810115774870
105 1.058971166611 -0.000926737602 0.000438655108 -0.000307272711 0.136884350823 -0.459481039904 9.830101557970
106 1.067049026489 -0.000858557427 -0.000062924178 -0.000782201816 0.130272118365 -0.455611900762 9.814040426016
107 1.080548524857 0.003344057000 -0.001495102927 0.002368805068 0.136622368153 -0.454770449884 9.815536143780
108 1.093099117279 -0.004287338775 0.000553218011 -0.003146779961 0.128384454427 -0.459259795882 9.809725765586
109 1.097295999527 0.002120845005 -0.007722748442 -0.004355743004 0.139620034620 -0.445640607364 9.823487187624
110 1.106807470322 0.001075251810 0.001072522005 -0.002242933516 0.149615420373 -0.469859189875 9.844478691816
111 1.122224330902 -0.002022330541 0.003399298867 -0.001041196768 0.128814297868 -0.474268100113 9.831649900675
112 1.131074428558 0.000807379026 -0.000443804547 0.001956827051 0.125180235067 -0.463446256109 9.814781852961
113 1.137607574463 -0.003179249200 0.003413222466 -0.001021043673 0.137759112557 -0.443675942905 9.814564336538
114 1.149630069733 -0.003653475226 -0.003663333344 -0.002164710441 0.135548152411 -0.434466212802 9.808035335541
115 1.161802291870 0.000076432618 0.004176872725 0.001415922259 0.134588578641 -0.420546587035 9.823335160017
116 1.167197227478 0.000405035885 0.004111971958 -0.000559297509 0.123936687615 -0.435632951595 9.847265474796
117 1.179698944092 0.000303093349 -0.004160877114 -0.002817811427 0.137054303801 -0.441176221669 9.852131527662
118 1.191139698029 -0.001324983760 -0.001220885500 0.000637893595 0.143783087712 -0.445003151223 9.809131688476
119 1.198078632355 -0.000473541056 0.005845210510 -0.001118929733 0.143143575909 -0.451732236631 9.828371951580
120 1.207748413086 0.001421498772 -0.001948341346 -0.000742453422 0.138033511424 -0.470041805729 9.852260166407
121 1.228621482849 -0.001951440521 0.002594554003 -0.002109867397 0.120990887778 -0.463144357055 9.829710963964
122 1.230581283569 0.001482180094 0.000092007079 0.002789939521 0.113548515150 -0.458806453943 9.802806755304
123 1.237288713455 0.002718813875 -0.002037813806 0.000771798258 0.130837754253 -0.450520657003 9.804915261269
124 1.249929428101 -0.001272508303 -0.004105243835 0.001098819876 0.148930382514 -0.432677988075 9.810146180391
125 1.262919187546 0.003180099643 0.001918919137 -0.000527913039 0.150392387426 -0.438547386602 9.817154653072
126 1.267393827438 0.000087734448 0.002482044810 0.000505125685 0.144959958633 -0.465041157268 9.822621799707
127 1.278653860092 0.001173700215 -0.000124411601 -0.002076683214 0.149517470375 -0.485385411233 9.823555015326
128 1.296800851822 0.000737070143 -0.003025831356 -0.000413905915 0.136591122095 -0.457902364768 9.810763646364
129 1.301089048386 -0.000702578046 0.007180033662 0.002341211442 0.135377888801 -0.440797139369 9.819587094784
130 1.307333946228 -0.001821145235 -0.002209020084 -0.001640800985 0.134543746943 -0.450220767930 9.818383737803
131 1.320551872253 -0.002572543913 0.000392695976 0.000196701348 0.147193503650 -0.459909750447 9.816779261827
132 1.330013751984 -0.000495564020 -0.001817276759 0.001025538538 0.132633589497 -0.480114731044 9.819322800636
133 1.338262796402 0.002001210165 -0.004902860321 -0.000230734853 0.112550623845 -0.456424042471 9.828857270479
134 1.351151466370 -0.000547600796 -0.001205507435 -0.002653639249 0.139843480485 -0.444445801936 9.824903383255
135 1.364857435226 -0.000535480292 0.004147435693 0.000401183470 0.153147010719 -0.450488241501 9.836751011610
136 1.368258714676 -0.000329983832 -0.004975274896 0.001527935100 0.133096360071 -0.471341203228 9.817907774448
137 1.378235340118 -0.000465471632 -0.004984607403 0.001787703448 0.129972119657 -0.461347653866 9.821730684042
138 1.395715236664 0.001337384104 0.006074568497 0.002146086258 0.110154772913 -0.472753671259 9.799970270991
139 1.398663282394 -0.001555466048 0.001667504507 -0.001244523916 0.124077989236 -0.440212161988 9.815296407938
140 1.407514095306 -0.000860194725 0.003656977647 0.000704332572 0.137147155758 -0.444069899060 9.820578782558
141 1.423306465149 -0.001447205689 -0.003895826007 -0.002063858039 0.124616554342 -0.474506995417 9.811991561651
142 1.428926229477 0.002839362226 -0.001997129339 0.002094345902 0.141582807871 -0.474971154705 9.818949748278
143 1.437357187271 -0.000188540151 -0.007096318338 0.001840031572 0.128593227435 -0.450477643423 9.815421538353
144 1.448533535004 0.003496598654 -0.001798027098 0.002244610995 0.131590921311 -0.457385653630 9.819906352758
145 1.459425449371 0.002530380924 -0.001708245800 -0.002657606423 0.134994969266 -0.442243630886 9.835761662722
146 1.469149589539 -0.000546377146 0.003119216244 0.000568093547 0.143841596413 -0.416599351019 9.838801045418
147 1.477222681046 -0.000343547521 -0.001761313966 0.001196067387 0.142998254327 -0.469719624147 9.826462250948
148 1.493836402893 -0.002495881284 -0.000429055472 0.001713463411 0.127971768910 -0.481328868829 9.818023549318
149 1.499808549881 -0.000477015681 0.000098170044 -0.002710563017 0.143573729983 -0.471304767765 9.813390215635
150 1.507856607437 0.001612543650 0.000011445049 0.000038521319 0.132327661347 -0.465304135792 9.815517432690
151 1.525789499283 0.000015482853 0.002524532112 -0.001899357517 0.131455110591 -0.449181206077 9.831510736942
152 1.528813123703 -0.001827653855 -0.005038437067 -0.001464379567 0.123185274722 -0.450758419409 9.810346155167
153 1.537424325943 -0.001636666454 0.000275334089 -0.002326103204 0.122730772477 -0.435315265059 9.825099849701
154 1.551892995834 0.001307078293 0.002702951942 -0.001338731159 0.125801675320 -0.439238235131 9.808318925500
155 1.564329147339 0.002659750215 0.001274330124 0.000306410825 0.138077959400 -0.444838552102 9.804493677020
156 1.567209959030 0.000525757056 0.000924513772 -0.000639198908 0.138994145002 -0.430504395291 9.826621295214
157 1.578489065170 0.000619650942 -0.000636997769 0.001143448240 0.130885582650 -0.447104640529 9.838240882158
158 1.591000556946 0.000706876684 -0.001809365949 -0.003692463749 0.134552088361 -0.468422200084 9.821592689753
159 1.599089622498 -0.001644699630 0.004578009804 -0.002912528415 0.126780261677 -0.461477023512 9.827452769279
160 1.607662200928 0.002759018505 -0.002795656735 -0.000205453727 0.137374201315 -0.452179365903 9.816882172823
161 1.619776010513 0.001293262104 -0.003933604143 -0.001557306074 0.135692980634 -0.468355468735 9.826408456564
162 1.630910158157 0.003606782002 0.001957693748 0.001375266010 0.146762426812 -0.469655816406 9.831820639372
163 1.637641429901 -0.002974383453 -0.000354606791 -0.004034971492 0.144613748649 -0.449556926228 9.830147166252
164 1.648508787155 0.000016570207 -0.003274652265 -0.003064150187 0.149709249912 -0.459795400836 9.812945827246
165 1.659218549728 -0.000308698829 0.003154061262 0.000629430777 0.145736953095 -0.470352110155 9.815739626884
166 1.670286178589 0.001600482573 0.005075993360 0.003654684832 0.129849775806 -0.464487535581 9.809852650166
167 1.677750825882 -0.000982020106 -0.001331339976 -0.000072924516 0.132130354363 -0.438601984978 9.828831542730
168 1.690976858139 -0.001058652696 -0.003833414410 0.001468418131 0.151746830977 -0.447210475132 9.811234931946
169 1.698024272919 0.000618974813 0.000662742071 -0.002160876425 0.145399431707 -0.465779477879 9.823033443689
170 1.707122325897 -0.004377317209 0.000163912461 0.000794161854 0.119441530947 -0.454498627447 9.831065179110
171 1.722515821457 -0.002549291708 -0.000191102338 0.001453141365 0.122102470882 -0.458709097803 9.830179910660
172 1.729473114014 -0.000456158826 -0.001799857371 -0.002978641389 0.127803935548 -0.464865009896 9.821487439871
173 1.737262010574 -0.001380574777 0.000199127971 -0.000358654620 0.137541504772 -0.464001595415 9.809888902903
174 1.751621961594 0.004883263721 0.001459790686 -0.000911905824 0.137739067571 -0.439556067847 9.815953634977
175 1.761408567429 0.002166771400 -0.002089144415 -0.002121770349 0.144818602195 -0.434605924711 9.816127882004
176 1.767597675323 -0.002413245008 0.001628762795 0.003444697441 0.136308573671 -0.460570193455 9.814681280851
177 1.777402639389 0.000822450529 -0.001909034102 0.001025712918 0.136849514209 -0.470092822686 9.797281721234
178 1.789897918701 0.003187271453 0.000308526497 0.002122875405 0.131511581903 -0.442711225413 9.810454913378
179 1.798300027847 -0.002184590782 -0.001297565554 -0.001358060533 0.137890336867 -0.446653345115 9.788790979385
180 1.808442354202 -0.003194473951 0.002251330275 0.000709914287 0.128891398888 -0.451450875923 9.795023526549
181 1.819276332855 -0.001825638409 0.003973332057 -0.000367690740 0.117370702978 -0.449732233062 9.809253895283
182 1.828734636307 -0.002112696356 -0.000931210230 -0.000503387965 0.130726026753 -0.458934325241 9.804909414053
183 1.837492465973 -0.000739461397 -0.000011139515 -0.000425300747 0.132098441357 -0.439343375377 9.835719562769
184 1.849760055542 -0.001651122295 0.001502589687 -0.002673346641 0.126049971851 -0.440971934572 9.818726384640
185 1.863554477692 0.003185012707 -0.003388718783 0.000681719760 0.121387831494 -0.452641551755 9.817443505526
186 1.867373943329 0.002233897753 -0.002446551166 -0.000159497960 0.119653720921 -0.426677940823 9.823979523182
187 1.877860069275 -0.000561734210 0.000046992675 -0.000152376198 0.151388981380 -0.455631708205 9.841745703220
188 1.890601396561 0.001881317591 0.001626357758 -0.000606884218 0.158005379979 -0.457272181101 9.816814345121
189 1.898984193802 0.001744850741 -0.000827924898 0.000209972209 0.143567553861 -0.459786739647 9.832894188166
190 1.906717538834 0.001201357559 -0.000621372179 0.000343706068 0.146228311071 -0.448174461722 9.820485227108
191 1.919595956802 -0.002706659301 -0.001947129659 -0.001610349663 0.147611725749 -0.447494065091 9.814098898172
192 1.929804801941 -0.000197695206 -0.005642194932 -0.002878445935 0.133599202344 -0.457041654624 9.813162174225
193 1.938312292099 -0.002608568628 -0.000093214531 -0.004543767378 0.138554196842 -0.442734212279 9.813295490742
194 1.948242425919 0.002480039117 0.005544511015 0.001544858527 0.123124545906 -0.458682346791 9.819402322769
195 1.959854364395 0.002229579219 0.003432511138 0.001264233908 0.108737316476 -0.472102072164 9.815875282288
196 1.967817306519 -0.000943775461 0.005282086658 -0.001353514303 0.138523663413 -0.466368694492 9.811389298439
197 1.977779388428 0.000728892041 -0.001158605892 -0.002565094084 0.147420613160 -0.461931607984 9.792318604589
198 1.992681980133 -0.001679039844 -0.000535061735 -0.000611166407 0.139967404911 -0.452686904222 9.826773322821
199 1.997894525528 0.002540733962 -0.003760961604 0.001449105792 0.125704109045 -0.445058955587 9.829383519888
200 2.007128238678 -0.002081910448 0.000545142118 -0.001658949102 0.143171085231 -0.442824295945 9.822259272337
201 2.019059658051 -0.003833094779 -0.003705391003 -0.000106505158 0.146921626395 -0.455741160773 9.802784535885
202 2.030955314636 0.003409877650 -0.004035992804 -0.002352374092 0.136763779409 -0.466795687415 9.809323477149
203 2.037333488464 0.001637662278 0.002739226588 0.002314088290 0.133921036748 -0.435186918676 9.825674046278
204 2.049946784973 0.000738452893 0.003540995942 -0.000410374464 0.135713482434 -0.441630623415 9.820154274702
205 2.062097072601 -0.000327573821 0.002318756885 -0.000566922953 0.123968509259 -0.461314178556 9.819208195210
206 2.068494081497 0.001969717115 0.005069753137 0.002243859640 0.118952913852 -0.457518421970 9.799854496121
207 2.076195001602 0.001827128635 -0.003265346025 0.000809224384 0.135169928921 -0.459484402053 9.791011167169
208 2.090885162354 0.001913380464 -0.003448032634 -0.001737730426 0.157414518837 -0.461742889099 9.794578553438
209 2.098734378815 0.001694513486 0.001217546276 0.001458382383 0.127930518631 -0.447681614533 9.796044450402
210 2.106428861618 -0.000219720494 -0.004029955699 0.002494533839 0.135912004542 -0.456049564853 9.823540982008
211 2.117842912674 -0.000611722771 -0.002120671405 -0.001229946750 0.133401767453 -0.462843115814 9.810639685392
212 2.127996206284 0.001949650300 0.000758489540 -0.003621899863 0.121623501694 -0.452769276872 9.799385549426
213 2.136291742325 -0.000208654104 0.001048994121 -0.002905753739 0.134085882548 -0.427963926271 9.821143623590
214 2.146613359451 0.001066540816 -0.001915715932 -0.002079241695 0.145241136616 -0.435921255872 9.823739787340
215 2.162954330444 0.000148821974 -0.001637861625 -0.002013856669 0.130953940256 -0.452401596643 9.821649992466
216 2.166611909866 -0.000743268885 0.002254030107 0.001262951092 0.131422210867 -0.441518722326 9.839792733192
217 2.176800012589 0.003289252317 -0.001377776377 0.000072575423 0.142568694111 -0.416717684045 9.823013563156
218 2.193439483643 -0.000246944473 -0.000769744516 -0.000401625726 0.135842815535 -0.456584621631 9.817599041462
219 2.196197032928 -0.001033396424 0.000642496130 0.003915066565 0.131286244830 -0.465423163176 9.828617534637
220 2.206390619278 0.000074340629 -0.000805050126 -0.000286386597 0.134630861320 -0.442608314417 9.809548010230
221 2.222934484482 -0.000821447032 0.001637591018 -0.000574754246 0.119494685791 -0.442859890871 9.812426594496
222 2.228087902069 0.000280049431 -0.005735157979 -0.001593415833 0.128918615850 -0.441086759269 9.819321631193
223 2.235920906067 0.001540103328 -0.002464997718 -0.000995022002 0.142695149286 -0.444383090548 9.806660070419
224 2.246197462082 0.002703280155 -0.001347460423 0.001762874672 0.153360297047 -0.440048549585 9.803128936887
225 2.258988857269 0.000371529080 -0.001578952710 -0.000564334238 0.133832478840 -0.459122276679 9.806498687267
226 2.266138076782 -0.000654765722 0.001376281730 0.000927178818 0.131178802243 -0.441427615397 9.808659818172
227 2.276268720627 -0.000525172864 -0.005068647821 -0.000615298143 0.121479477463 -0.440451093838 9.807248300314
228 2.290288209915 -0.002365169229 0.002120173233 -0.003561018804 0.125545722591 -0.451232847869 9.813199596405
229 2.296427726746 -0.004364935591 0.000966256416 0.002033622318 0.136265203776 -0.466659739651 9.816918425560
230 2.306657552719 -0.002451633539 0.000447813171 -0.003850700250 0.136823366191 -0.488049950860 9.821930658817
231 2.318270206451 -0.000114003670 -0.001044553677 0.001703498663 0.139956176430 -0.476259223223 9.827368569374
232 2.329260826111 -0.000938028664 0.005950343476 0.002583754677 0.114786918880 -0.435933754295 9.830915490389
233 2.336249113083 0.001377821500 0.003598247663 0.000901685943 0.136394847510 -0.439028795175 9.840865112543
234 2.346070051193 0.002534676311 -0.000972161079 -0.000068739822 0.149749577427 -0.436143267341 9.838856009245
235 2.359242677689 -0.007082363269 0.002170318943 0.002450344090 0.124365379885 -0.458203679100 9.825616743565
236 2.367414951324 0.001334908846 -0.001214286894 -0.000318782626 0.143111306587 -0.465388591513 9.819853727818
237 2.376258850098 -0.002159198946 0.002605171798 -0.000740092467 0.128892778466 -0.454267845154 9.822836977243
238 2.393146038055 0.000950455926 -0.001018321345 0.000407387315 0.120250356188 -0.440071536452 9.813210121393
239 2.396784067154 0.000288203867 -0.005358525623 -0.001221529314 0.142768659750 -0.441047254018 9.823261485100
240 2.405922174454 -0.002108281594 0.000158721849 0.001245301018 0.160236567836 -0.434248038568 9.810014033318
241 2.420718193054 -0.001525269208 0.000975913366 0.002250504799 0.133512362055 -0.450531291626 9.820544868708
242 2.433675050735 0.000401234769 -0.004324414711 0.001640885770 0.118113171458 -0.440045589432 9.828176654577
243 2.436294078827 0.001352985052 -0.001500697386 0.000380038939 0.124437839678 -0.450071627386 9.815015741587
244 2.446161270142 -0.002142198537 0.005230066072 0.000520858621 0.161690551098 -0.448152936660 9.840755184889
245 2.462854385376 -0.005545471210 -0.001736026419 -0.000719128526 0.126108772913 -0.455286357030 9.848810309172
246 2.468281984329 -0.002677284946 0.002006340131 -0.000291587499 0.122466524011 -0.466292497963 9.803230093718
247 2.475978851318 -0.000919871900 0.006011672123 0.000813639080 0.122926352704 -0.454100103155 9.813436993361
248 2.488763332367 -0.000601555295 -0.003991138565 0.000738587352 0.124491396518 -0.438779521063 9.817565127611
249 2.500186920166 -0.001595891221 0.004210157818 0.002184413932 0.141648314958 -0.439722932763 9.843430870771
250 2.506315231323 -0.000325101456 -0.000508433342 0.001166497587 0.121271581538 -0.455210927948 9.842793524265
251 2.519174337387 -0.000818958055 0.005200765058 -0.003805016635 0.129296866748 -0.446152092554 9.818196626902
252 2.527557134628 -0.001031833507 0.004571158406 0.000682779238 0.146598156597 -0.435021442473 9.801229176521
253 2.536575555801 -0.002056629143 0.004482209866 -0.001615126448 0.141343876021 -0.442325272635 9.798595005870
254 2.546943187714 -0.000131806920 -0.004062705558 -0.001529241844 0.122133598169 -0.437580110952 9.821107370853
255 2.562540531158 -0.001738507789 -0.001150398986 -0.001528137698 0.133096899111 -0.449916712716 9.816153609753
256 2.567076683044 -0.000959527448 0.000427733580 -0.001032065493 0.156446384378 -0.470660587326 9.829252542257
257 2.575903177261 -0.001046049755 -0.004311887450 -0.000948000629 0.142729967628 -0.473652388304 9.839006867409
258 2.589544057846 -0.001093481330 -0.000209205933 0.000988385295 0.131484346669 -0.485635489337 9.837205924988
259 2.599297761917 0.001351950346 -0.001043836977 -0.000202787185 0.130271661552 -0.476622079499 9.811098107100
260 2.606672286987 0.003816949885 -0.001597193413 0.004275210209 0.118603140721 -0.475503214784 9.820754199028
261 2.617505073547 -0.001611724936 0.007151420805 0.000277861491 0.116659032879 -0.461191935204 9.826491487026
262 2.628919363022 0.002001483113 0.000635083492 0.000826687334 0.155932012126 -0.458028226085 9.827563866377
263 2.636471033096 -0.002032599575 -0.000811032290 0.002334822456 0.147514269110 -0.441320611350 9.832056866884
264 2.646612167358 -0.001323045946 -0.000173856566 -0.000100285765 0.128458558749 -0.461318161972 9.838201121092
265 2.657496213913 -0.002313834198 0.004042911561 0.002101629803 0.141837865245 -0.476523444280 9.829995138645
266 2.667344570160 -0.002675249605 -0.000621266133 0.002208163139 0.138309518276 -0.455336569995 9.818774331808
267 2.676387548447 -0.003612258907 -0.001374773299 0.000605290353 0.141682493761 -0.460648290329 9.833524518013
268 2.690039634705 -0.000107477828 0.004920389851 0.000813104823 0.120332235480 -0.436319451258 9.836839889288
269 2.698308706284 -0.004878891872 0.002234416862 -0.003063596228 0.126156829717 -0.437156480178 9.811898006201
270 2.706045150757 -0.000771105745 0.000163025315 0.000195450407 0.123503244482 -0.450155608021 9.814043934345
271 2.720118045807 0.001309461224 0.003287920217 0.002943010167 0.124401924983 -0.439396694675 9.828578943014
272 2.733080148697 0.001732431152 -0.000779248932 0.002175362695 0.124177273130 -0.446436267234 9.828019949198
273 2.737052917480 -0.004522329972 0.001648081766 -0.001776610238 0.136675842768 -0.457204901576 9.830769309998
274 2.745996713638 -0.000268816317 -0.000141844407 0.003769220525 0.142187547013 -0.435635034665 9.839322617054
275 2.760486364365 -0.001871754398 -0.000196439827 -0.001802447061 0.137319475031 -0.447510729656 9.811671134233
276 2.766906976700 0.000725415432 -0.002063566885 0.003352223593 0.143634879068 -0.463153383695 9.819771866798
277 2.776430368423 -0.000071018195 -0.005820452475 -0.002391789396 0.126551206140 -0.462254483923 9.804929294586
278 2.787455320358 -0.000071083669 0.000364479375 0.001926260775 0.129794510482 -0.462029183395 9.826719528437
279 2.799074888229 -0.003843687866 -0.006370721373 -0.004910791548 0.131414554669 -0.452635594904 9.836311300993
280 2.806508541107 -0.001731122588 -0.002151142883 0.000410429697 0.118950392241 -0.431789394021 9.841999472380
281 2.819512844086 0.000098702124 0.002904097066 0.000250511083 0.126308976095 -0.446097384542 9.825377007723
282 2.828450202942 -0.000467398653 -0.001826755038 0.000487458933 0.120459933188 -0.448115843385 9.811928411722
283 2.837022066116 -0.002284674925 -0.000634179149 -0.002331802993 0.115244289916 -0.439771610834 9.811037296057
284 2.846388816833 0.000447653127 -0.000530115869 -0.001121424106 0.137242163876 -0.441926784888 9.799348127246
285 2.861681938171 0.001927671289 -0.002009792357 -0.000667602600 0.138116925610 -0.438535070904 9.820523818731
286 2.866800546646 0.001795569786 -0.003064331978 -0.001943522038 0.127981361998 -0.460762311034 9.810824457407
287 2.876221895218 -0.001540459109 0.001441698095 -0.003304506197 0.138129341807 -0.456204881519 9.814957269430
288 2.890297889709 -0.003346578420 -0.004462732900 -0.002387109619 0.137856788468 -0.432043126635 9.800322858095
289 2.897889852524 0.004475188379 0.000398961557 0.001694314919 0.130164383417 -0.439690115266 9.796486499906
290 2.906394481659 -0.001773720682 -0.001319096067 -0.002918708302 0.114284378104 -0.459798324443 9.787152589560
291 2.919011116028 -0.000532775129 0.001014255213 -0.001715951412 0.133299505133 -0.459361025803 9.808852776289
292 2.930809974670 -0.000520753876 -0.003669442490 0.000335915412 0.134559570970 -0.446107288264 9.816428428888
293 2.936707735062 -0.005610002412 -0.001295573255 -0.001830959010 0.149810297107 -0.440606191233 9.821164673567
294 2.946864604950 0.002174181437 0.000930629549 -0.001036360361 0.144507557731 -0.428158711642 9.817983788252
295 2.959183692932 -0.000284333148 0.007344807912 0.000375585231 0.134061735375 -0.443987270594 9.809255649447
296 2.967845678329 0.002775408129 -0.008819151577 0.000532807411 0.123687852044 -0.454505278654 9.820389332771
297 2.976363897324 -0.004102040760 0.005288991112 -0.000933776449 0.141364679318 -0.453161442317 9.824644936323
298 2.992683172226 0.001552684683 -0.000046246892 -0.000073886092 0.119729762133 -0.461784842871 9.827140527964
299 2.998157501221 0.003586089709 0.004948352002 0.004594292537 0.126995749846 -0.463885272369 9.821349445581
300 3.006391048431 -0.000370917222 -0.000602404568 -0.000074085268 0.120785157150 -0.459827670157 9.812645280361
301 3.023586034775 -0.000238761998 -0.006994070117 0.000073525767 0.133999837115 -0.462237928994 9.811220898628
302 3.033637046814 -0.001361978292 0.002514440188 0.000170990693 0.147574952245 -0.460095582269 9.810549638271
303 3.037097454071 0.000756242887 -0.000542935388 0.000475707117 0.150677804640 -0.444709292091 9.806173582077
304 3.046582937241 0.000832973526 -0.001068974396 0.000693971861 0.142232990842 -0.459049551934 9.810413982868
305 3.063159465790 -0.000899851769 0.004084858169 0.001302695390 0.141281740218 -0.480081365369 9.810126299858
306 3.068616628647 -0.003604711551 -0.003551968998 0.001181968888 0.130884312708 -0.472892542630 9.823394801617
307 3.076020956039 -0.003762678095 0.000846875669 -0.001494715026 0.127110930858 -0.462531970851 9.822258102894
308 3.089029788971 -0.002828843259 -0.000493654164 -0.000162411670 0.128879046645 -0.469282033145 9.812058219910
309 3.100875377655 -0.001784791916 0.000747385861 -0.001799804446 0.136051213956 -0.471255687699 9.799852741957
310 3.106392860413 -0.002228399782 0.004637173072 -0.000122270197 0.145314491764 -0.467276767083 9.827905343771
311 3.119021654129 0.003330592692 -0.000975940674 0.002907863462 0.142305733860 -0.462561097294 9.818417651653
312 3.133322477341 0.001499863068 0.001670189384 0.003018972676 0.146981478129 -0.462113894932 9.813781979084
313 3.135929822922 0.002299097346 0.000069033064 0.001547613754 0.142268923810 -0.458544717953 9.841530525684
314 3.146249055862 -0.004249299264 0.004974478549 0.003123584192 0.131523769693 -0.447135557681 9.827555680275
315 3.160432338715 -0.001815087714 -0.000071466336 0.001236988782 0.139353602584 -0.464221048728 9.837164994478
316 3.167941570282 -0.000383330635 0.002048709749 0.003762616197 0.138673635358 -0.451830177493 9.845335893631
317 3.176476478577 0.002457593922 0.003212641963 0.004683921432 0.142510779267 -0.430652366392 9.821867508888
318 3.196290254593 -0.001175097465 0.001071380149 0.000465270042 0.116469208505 -0.441293604523 9.813210121393
319 3.202649593353 -0.002408977188 0.001162810773 0.000121048108 0.137237522649 -0.464727746509 9.817841116190
320 3.206193208694 -0.000010263456 -0.003912890523 -0.000726682189 0.148979645306 -0.439145776033 9.821157656908
321 3.221368312836 -0.001386261562 0.005444193066 -0.001695265361 0.144053219939 -0.443113513850 9.830433679819
322 3.230084419250 0.001531390578 -0.002046057381 -0.001023402418 0.116331917709 -0.444173029326 9.826547620296
323 3.236889839172 -0.004593533641 0.002160195290 -0.005051341435 0.129878171347 -0.468735391572 9.813647493124
324 3.245559215546 0.002262381353 -0.006649633402 -0.000980843595 0.129861324057 -0.479593488313 9.816111509800
325 3.267461061478 0.000735586094 0.003273955005 0.000795669115 0.116101528276 -0.472391253524 9.816179337502
326 3.269255161285 -0.000060060378 0.001693867851 -0.001143883214 0.141588408407 -0.463701596707 9.809347450733
327 3.275719165802 0.000796738215 -0.005074751765 0.001037735634 0.157417095266 -0.461354962885 9.834810905457
328 3.286659479141 -0.000370809454 0.003395796186 -0.000174085967 0.170025848374 -0.443639690168 9.836121851206
329 3.298823595047 -0.001537065920 -0.002430397950 0.000631483738 0.172410598733 -0.439448442534 9.824074248075
330 3.305725336075 0.000099029492 -0.000560244439 0.002736756402 0.152592109954 -0.451253788210 9.831960972548
331 3.317967414856 -0.001961218926 -0.001688595624 -0.001632712284 0.149615128012 -0.468146430776 9.821225484610
332 3.329929828644 -0.006603806745 0.001729677745 0.000478714097 0.149585480802 -0.455507637598 9.816574609280
333 3.335433244705 -0.000299596455 -0.003594696348 -0.001247788238 0.148545389045 -0.454592036717 9.795931014419
334 3.346141338348 -0.002311839168 0.002370122344 -0.001195967389 0.143536536209 -0.446457207575 9.808069834113
335 3.365225553513 -0.001885746397 0.003604242897 0.000441053676 0.143768497081 -0.465261743478 9.820873482227
336 3.367733478546 0.004422208639 -0.001360303023 0.003866832661 0.133082463797 -0.457682546005 9.828548537493
337 3.375209331512 -0.001159583511 0.000553322171 -0.001936800808 0.137200493328 -0.457629445978 9.846366173029
338 3.392904043198 -0.004446055374 0.003991573670 -0.001474334432 0.134939521216 -0.442262634337 9.821260567904
339 3.399301528931 0.001173268102 -0.000727341998 -0.001212569624 0.123962159548 -0.442953117415 9.829680558443
340 3.405963897705 0.003891457278 0.000841087975 0.001023957676 0.125710851615 -0.441558191031 9.829832586050
341 3.416143178940 -0.001913332611 -0.001166619562 0.001553232530 0.125933922892 -0.447729744427 9.821334242821
342 3.432238101959 -0.000506805830 -0.005253441552 0.002386567364 0.120146376248 -0.465774178840 9.827421194315
343 3.435549259186 0.000926384291 0.000554029248 0.000169765775 0.115942767235 -0.465410335846 9.802124969959
344 3.445302724838 -0.002066753706 -0.003406492523 -0.001868351196 0.135204217359 -0.455180924423 9.811029109955
345 3.456735849380 -0.000254254902 -0.000547799102 -0.002000862575 0.146352335997 -0.445547819361 9.800750874281
346 3.467420101166 -0.001587090956 -0.001641889657 -0.003990775242 0.132255941592 -0.465320471451 9.819904013872
347 3.475496292114 -0.002376182856 -0.003597094754 -0.004188597916 0.136106479280 -0.451431324296 9.827027091980
348 3.490482091904 -0.003087326970 0.000522922083 -0.002700129875 0.142517375657 -0.434539376087 9.810044438839
349 3.497896671295 0.005308820218 -0.000786558321 0.002939328294 0.125540551459 -0.426019251980 9.820453652143
350 3.505442619324 0.000030675572 -0.000586071510 0.000932335117 0.127201343430 -0.458886341527 9.813477923870
351 3.518309593201 -0.001553459185 -0.001097231342 -0.001730644701 0.143795101913 -0.479348928519 9.840336524248
352 3.528482198715 -0.004015667215 0.002174243205 0.000151112741 0.131924276557 -0.461057120338 9.834578186274
353 3.535807847977 -0.001244601548 0.002541324591 0.001886838059 0.135046698852 -0.452232100479 9.813238188028
354 3.545116662979 0.001741508786 -0.001971319432 0.000619193406 0.119576592492 -0.450072796829 9.837274922132
355 3.565270423889 0.000115587238 0.000947740229 -0.003372714850 0.129102410283 -0.465768952891 9.843289368153
356 3.568300008774 -0.001947726790 0.000911564541 0.000375502073 0.133582026148 -0.474432187602 9.797730787396
357 3.575364351273 -0.002819706068 0.004846378940 -0.000219755945 0.140498322956 -0.478736761585 9.805235103965
358 3.586419105530 -0.001794329231 0.004300535986 -0.000569747750 0.115833442574 -0.458032319136 9.830413799286
359 3.596577405930 0.000673988595 0.001700433297 -0.001814492014 0.119425286651 -0.440477223583 9.846536911726
360 3.605098962784 -0.000489103188 -0.001835892229 -0.001383345999 0.124968209546 -0.457961823642 9.842008827925
361 3.615135908127 -0.000347719080 0.000010550825 -0.003042716161 0.122581732431 -0.467395173199 9.823890645504
362 3.626418590546 -0.001374470052 0.002049199079 -0.000479657061 0.116794121834 -0.462310690284 9.834077664614
363 3.636208057404 0.002598656676 0.001659311125 0.001955934736 0.120737401843 -0.445785033591 9.814060306549
364 3.646371364594 -0.000496725186 -0.002251227806 -0.000015141092 0.143926024726 -0.460321613699 9.829513328075
365 3.663273334503 -0.004516396636 -0.004904558607 -0.003325898090 0.128690081080 -0.453102604710 9.820231457949
366 3.666424751282 -0.002238747359 -0.001642622286 0.000492587014 0.110714470223 -0.461024522111 9.827395466566
367 3.675874471664 0.000499772510 -0.000063251575 0.003411794658 0.116627732003 -0.463524243347 9.813780809641
368 3.687567472458 -0.000388946647 0.002635305569 0.000828730218 0.128242092999 -0.466339092962 9.817099689245
369 3.699362754822 0.002047724328 -0.002808031852 -0.001760527761 0.149014180424 -0.444962732345 9.834623794556
370 3.705386161804 -0.001142727184 -0.001339417235 0.000701991513 0.131628946485 -0.473900054432 9.826068148613
371 3.718037843704 -0.003460708137 -0.002085083875 0.000530204132 0.141160081588 -0.461930219270 9.821993808746
372 3.734154462814 -0.002689031463 0.001389938753 0.001689128387 0.120370726604 -0.460572715066 9.819257311821
373 3.737499713898 -0.002314594915 0.002122064623 -0.000254923244 0.129509312538 -0.466462323032 9.814166725874
374 3.746012687683 -0.001002618838 0.001084924495 0.000803750014 0.134798457138 -0.453298413344 9.822403113842
375 3.763751506805 0.001173732204 0.002582952868 0.001498544881 0.149241801566 -0.467268982977 9.824632072449
376 3.767179250717 0.002047445268 -0.012079923935 -0.000780512243 0.149737133821 -0.466737215258 9.837307666540
377 3.775782585144 -0.002376813016 -0.002411102256 0.001991046070 0.149149123197 -0.460660861842 9.816395684481
378 3.792419672012 0.004415796766 -0.007096371393 -0.001500505061 0.156128679570 -0.458883271739 9.817292647362
379 3.795669078827 -0.002584391599 0.004539530247 0.004285130744 0.122234097188 -0.453528830186 9.812973893881
380 3.805752754211 -0.001017706660 0.001563592851 0.000219579582 0.127932144888 -0.479488165341 9.835055319071
381 3.817530155182 0.000102433483 0.000485189622 -0.001719557863 0.139259791318 -0.450004457496 9.820316827297
382 3.827601909637 -0.000499696470 -0.003771407490 0.003713889192 0.138951487737 -0.461182762384 9.818533426523
383 3.836343050003 -0.002505883223 0.002921393569 0.001941403733 0.146402028194 -0.469942293428 9.807334839106
384 3.845872640610 -0.002044125809 -0.000895058989 -0.002806567113 0.131308820564 -0.456732483096 9.819980027676
385 3.859957933426 -0.001417776719 0.000206427933 0.000157684299 0.147951896656 -0.471211285405 9.804800071120
386 3.866819143295 0.000323815812 -0.000337029700 0.003158877578 0.143299020482 -0.477358170860 9.840833537579
387 3.874938488007 -0.002104667991 0.004681677511 0.000213507253 0.152641875241 -0.454064910226 9.844385136366
388 3.887141704559 -0.000976655423 -0.004452679987 0.002673226487 0.146041885391 -0.442834199667 9.827933410406
389 3.897629261017 -0.002817323267 0.000349299909 0.000321943341 0.143756318428 -0.449517384432 9.830673415661
390 3.905733108521 0.000624436764 -0.006191942121 -0.002612563890 0.121440438163 -0.458621535748 9.808535857201
391 3.915189981461 0.000756693531 0.001966304159 -0.000615242292 0.121893889736 -0.464020452686 9.817698444128
392 3.932214021683 0.000781877764 -0.007587702247 0.000228762856 0.148414384006 -0.432616592310 9.791987067461
393 3.936298847198 -0.002337445566 0.003447550456 0.000277706682 0.128422178105 -0.454423271455 9.812754038572
394 3.945696353912 -0.001123904825 0.003513629361 0.000934903871 0.122474472569 -0.468922648653 9.814111762047
395 3.958476305008 0.001208667728 0.000325775797 0.001148502264 0.139538118783 -0.467032609284 9.826774492264
396 3.966743707657 -0.000721802090 -0.001835308623 0.002748284457 0.149565234818 -0.464440721311 9.814963116646
397 3.974921941757 0.001748353032 0.005652525604 0.000468938000 0.127568365848 -0.460126060881 9.824305797815
398 3.986670017242 0.000185739443 -0.001935572997 0.001284022054 0.114784698766 -0.456495122686 9.819688836336
399 4.000328063965 -0.002342710250 -0.000899856840 0.001566196065 0.121273244340 -0.438641855679 9.812557572126
400 4.004891872406 0.000451528657 -0.000380739775 -0.000617261119 0.135025822464 -0.460284228064 9.840605496168
401 4.016062259674 0.005765406184 -0.005756401890 0.000423906911 0.128773641447 -0.456336626597 9.846966097355
402 4.031039714813 -0.002179229740 0.003874181061 -0.003100746025 0.114817260448 -0.474432077967 9.811240779161
403 4.035662174225 0.001311599685 0.001854939553 0.000245997071 0.131701881364 -0.481686974242 9.819177789688
404 4.045121908188 0.002008924229 -0.000206202042 -0.001553737854 0.135254878001 -0.441006433144 9.811948292255
405 4.058647871017 0.000952960701 -0.002767629566 0.002344822054 0.132998072030 -0.439999908060 9.804541624188
406 4.066821098328 -0.001904976553 0.000780364846 -0.002390024532 0.133011072949 -0.457754320577 9.820923768282
407 4.075679302216 -0.000130690681 0.001279961123 0.001574271632 0.128755825711 -0.458447617628 9.812279244661
408 4.086829185486 0.000982136359 -0.001017662967 0.001490272047 0.115497419536 -0.482058455162 9.816331365108
409 4.100080490112 -0.002444312707 0.000933256755 -0.000187343240 0.143720312370 -0.460396238789 9.825752398968
410 4.105452775955 -0.005828544948 0.003453829171 -0.000292119253 0.149191469830 -0.461936066486 9.800870742202
411 4.123183965683 -0.003277676149 0.001781157507 -0.001204198741 0.142826793864 -0.448394170851 9.802262379527
412 4.132417201996 -0.002576387812 0.001513611637 -0.001123423687 0.133799158847 -0.449315838218 9.812186858654
413 4.135221958160 -0.001283694880 -0.001705834651 -0.003018726125 0.139382966571 -0.454844782613 9.845116038322
414 4.146136999130 0.001670558820 -0.004717599497 -0.000824156681 0.137204376245 -0.458699961528 9.829895735979
415 4.164272069931 -0.001359590680 0.001449760269 0.003545395359 0.130329320580 -0.451057723761 9.815426216125
416 4.167610883713 -0.002275470894 0.002291423073 -0.000513096898 0.152713613268 -0.451630275808 9.796633265018
417 4.175342082977 -0.003141364433 0.002070603976 0.001865799867 0.147127822973 -0.456449514404 9.827724080086
418 4.188376426697 -0.000855121195 0.004996030388 0.002035612927 0.126788292462 -0.455653598718 9.830850001574
419 4.197927474976 0.005851681680 0.000422770939 0.003404887604 0.145826168815 -0.453823785670 9.843979339600
420 4.205421209335 0.002201717457 0.002132331577 -0.000766277855 0.124021463105 -0.441293969974 9.849950516224
421 4.215072154999 -0.001176666103 -0.002066460862 -0.003094249628 0.146505752318 -0.450738136880 9.838204629421
422 4.229609012604 -0.000816571158 -0.000021551358 -0.000953979998 0.146678437041 -0.446816920973 9.809633964300
423 4.235946655273 0.000212019563 0.001530446378 -0.000352256662 0.132297374597 -0.458825713210 9.815487027168
424 4.245999574661 -0.003224762207 0.004127698132 0.001526187141 0.126832795255 -0.472837542258 9.820669999123
425 4.257870435715 0.002235270946 -0.003781628151 0.001743972080 0.145502488883 -0.511128143594 9.819692344666
426 4.267887353897 -0.000262168054 0.004386088996 0.000043786077 0.141837253114 -0.473847356401 9.814576030970
427 4.275983810425 0.000345537967 0.002467657758 0.003114092519 0.121059556017 -0.477446865812 9.806898052096
428 4.290236234665 0.002846292686 -0.002608376954 0.000349351827 0.133682981981 -0.452096847072 9.820816179514
429 4.297113418579 -0.000772434595 -0.002658773116 0.000486180863 0.136571296379 -0.442189799957 9.810900471210
430 4.305608987808 -0.001528314809 0.001346547432 -0.000160073049 0.134342081957 -0.460775321089 9.823380768299
431 4.315689802170 0.000484871356 0.003046337696 -0.004286362716 0.135949289678 -0.446682471558 9.811444262266
432 4.331318378448 0.003509941247 -0.000401802999 0.003750754988 0.143905787878 -0.470612128526 9.817865674496
433 4.336130619049 -0.002133102828 0.004508952269 -0.000220179525 0.146523988321 -0.476423895434 9.818229371309
434 4.345244884491 0.000222589536 -0.000203925286 0.001040473761 0.139552892139 -0.463660227656 9.802083454728
435 4.361159086227 -0.000599080688 -0.000238157829 0.003960122622 0.135209434172 -0.446071729884 9.810773001909
436 4.367667913437 -0.001817326174 0.002095184641 0.001603176813 0.146533380412 -0.452769094147 9.822829960585
437 4.375527143478 0.002293316414 0.001975300260 0.001424529028 0.156053890027 -0.473978845663 9.827714724541
438 4.387153863907 -0.001303938805 0.002428481982 -0.004207498818 0.141170168035 -0.454586408772 9.806717957854
439 4.401172637939 0.001761824492 0.001110456511 -0.003000771374 0.140959439864 -0.470717414953 9.811031448841
440 4.405139207840 0.000101492388 0.001041267313 0.003453129831 0.138267372642 -0.468727424741 9.831775031090
441 4.414602279663 -0.000034355839 -0.004041893110 -0.000583057509 0.143398624146 -0.468602586687 9.829318031073
442 4.426639556885 0.000384139564 -0.001386474173 -0.001165174459 0.139960443070 -0.462475143224 9.811191662550
443 4.440305471420 0.002498589178 -0.001900919523 -0.001841616986 0.128251055684 -0.465262876377 9.820353080034
444 4.445162296295 -0.000481731641 0.001147141035 0.000915142644 0.139819762716 -0.446890888251 9.809512342215
445 4.464662790298 0.001897739334 0.004500972148 -0.000191541538 0.134151197774 -0.452185505480 9.808490248919
446 4.468805551529 -0.000034142419 -0.001916238811 -0.000062981817 0.119684583256 -0.468983898237 9.834009836912
447 4.474485874176 -0.000192398532 -0.002967440248 0.002339523559 0.130659642583 -0.441854279414 9.825824904442
448 4.491369247437 -0.000786767161 0.000919566443 -0.001466444037 0.151606360758 -0.446967121325 9.816046020985
449 4.500878334045 -0.004365524919 0.002954865395 -0.000912972973 0.151930387868 -0.448870024569 9.827361552715
450 4.504793882370 -0.002442638608 -0.001571190792 -0.000915390884 0.155646119826 -0.454923391119 9.836142901182
451 4.514642715454 0.002395572177 0.002338123319 -0.000274281795 0.158339584898 -0.439555190764 9.836941630840
452 4.531878471375 -0.000669756341 0.002901373047 -0.000144091709 0.143392630750 -0.452547228858 9.838328590393
453 4.536702394485 -0.001549519839 0.001571313157 0.000809177635 0.133962195665 -0.451996092238 9.850012496710
454 4.544256687164 -0.000943534568 -0.000647573366 -0.001704932583 0.126062470274 -0.457112259753 9.846417628527
455 4.557111501694 -0.000981124150 -0.003048726479 0.001968129491 0.121478984104 -0.472849931046 9.818428176641
456 4.568137645721 0.003223154688 0.002012775800 -0.001320093842 0.116119773416 -0.458670944721 9.841156303883
457 4.574620962143 0.001212423982 -0.004653722642 -0.004308339517 0.126224739645 -0.451036417969 9.831950447559
458 4.586808681488 -0.000367242372 -0.002334523110 -0.006032507197 0.136996635636 -0.485353982449 9.827933410406
459 4.595482826233 -0.001254955237 0.000929872018 0.001807962198 0.145527686728 -0.466068001427 9.821640636921
460 4.605520963669 0.003825214267 0.001060952144 0.003208225381 0.154508233387 -0.462013432458 9.812893202305
461 4.614888906479 0.001641305530 -0.003252809402 0.001860021925 0.146819071714 -0.469385163411 9.812203230858
462 4.626147508621 0.001825906936 -0.001494059639 0.002701594354 0.116861383086 -0.446929333694 9.837954368591
463 4.634788513184 0.005690606207 -0.002670910265 0.000988616566 0.122184669944 -0.462608021200 9.828752020597
464 4.645036458969 0.002815809115 -0.006795639648 0.000333179755 0.127558827577 -0.464490130283 9.814902305603
465 4.659605264664 -0.002301034380 0.001024708641 -0.000673825789 0.149541197279 -0.461018090174 9.814006512165
466 4.668638944626 0.000940664387 -0.006338534055 -0.001287074416 0.148360991618 -0.450571673959 9.807258825302
467 4.674057483673 -0.000433815158 -0.000204221495 0.002215248344 0.132546676118 -0.441317322291 9.799830522537
468 4.688455581665 0.002534659666 0.005807025878 0.000552279468 0.136602341440 -0.453579372056 9.824632072449
469 4.696706771851 0.003569513612 -0.002656389275 0.003653305918 0.117606528495 -0.458474039733 9.825502138138
470 4.706494808197 0.001192065364 -0.002759152183 -0.001101558328 0.121468276391 -0.442710129060 9.826456403732
471 4.714076280594 0.001124534204 -0.000368438714 0.001277567659 0.139585746182 -0.454529106058 9.835254124403
472 4.726736307144 0.000900905200 0.002604693521 0.003388940106 0.149425559454 -0.449151860364 9.815601632595
473 4.736835241318 0.002520598228 -0.001537939119 -0.000676431279 0.146115679080 -0.466218823045 9.825591015816
474 4.744740962982 -0.001101844670 -0.000900936864 -0.002133530910 0.124634205624 -0.451524295025 9.826036573648
475 4.758535623550 0.000987789920 -0.002726385679 0.002252811659 0.136160346754 -0.454946999252 9.831261645555
476 4.765249013901 -0.004259575060 0.003967361010 0.001055412951 0.132348958002 -0.452264662161 9.823381937742
477 4.774712800980 -0.000357191930 -0.003652730894 -0.000360083696 0.143649688968 -0.451890367270 9.805640316010
478 4.790368080139 -0.000140560176 0.000272266805 -0.003275553682 0.133656843100 -0.450725419186 9.797677577734
479 4.799648761749 -0.000614977471 -0.001233588050 -0.001422685491 0.151414636038 -0.464282773398 9.812430102825
480 4.804796695709 0.000537829121 0.001033225360 -0.002081805898 0.135944420043 -0.447747066803 9.836174476147
481 4.814938306808 0.001255906198 -0.002096226239 -0.002602014235 0.127655251818 -0.467272637486 9.827497208118
482 4.828354358673 -0.000073244440 -0.001055630633 0.003455246316 0.147599684140 -0.459629595727 9.820693387985
483 4.835878133774 0.000532880459 -0.001122626689 0.000646990540 0.136748805055 -0.467162380926 9.825559440851
484 4.844494104385 0.001768669648 0.001327245366 0.002820000212 0.121588016404 -0.470058653019 9.854172205925
485 4.858399152756 -0.004064023615 0.000382432176 -0.003140729852 0.136451327959 -0.454439095482 9.850135288239
486 4.869194984436 -0.001919147092 0.004045061856 0.004132854366 0.160728647579 -0.467001728676 9.821683906317
487 4.874095916748 -0.003260623336 0.007412552072 -0.001747105065 0.159805079866 -0.469737385064 9.790732254982
488 4.885992765427 -0.000545712656 0.000617454484 0.000549690233 0.137005644003 -0.462627792098 9.790943339467
489 4.899056434631 -0.000881804886 0.003547685313 0.000268045408 0.134745092159 -0.456219645739 9.819078387022
490 4.904624700546 0.000728838596 -0.001068267969 0.001783249285 0.142895160606 -0.463476551995 9.809835693240
491 4.914149999619 -0.002539151150 -0.003716958589 -0.003424176536 0.150114224413 -0.473376070820 9.832577269077
492 4.927100896835 0.000762190787 -0.000902311812 0.001540008400 0.136861939542 -0.459014541730 9.833982939720
493 4.936074972153 0.002000155823 -0.001952928797 -0.001406608607 0.124306039782 -0.443248913437 9.827470310926
494 4.944732904434 0.001494978222 0.001096553198 0.001057511945 0.114454367626 -0.462626476474 9.827722910643
495 4.955812931061 -0.002141967201 0.006780139739 -0.000189608991 0.117971093254 -0.453787569478 9.820789282322
496 4.964856863022 -0.002013529756 0.002891979423 0.003942514289 0.137470881371 -0.464553609118 9.823628690243
497 4.974483966827 0.000489332996 -0.004615699775 0.000095338501 0.152636137661 -0.468093367293 9.820977562666
498 4.987071275711 0.001478376897 0.002604147365 0.000000666528 0.137817904484 -0.452182289511 9.838091193438
499 5.002243995667 0.000184854020 -0.002504164391 -0.001267223073 0.129735307423 -0.454661947489 9.856238611937
500 5.004660844803 0.003926073691 -0.002883807107 0.000852854713 0.136409045281 -0.423591305315 9.841411242485
501 5.014346599579 0.000443669341 0.003436838515 0.001901885049 0.144050734872 -0.444362479113 9.838017518520
502 5.032333374023 0.001395738280 -0.001349302270 0.001051891544 0.105743770469 -0.465204806216 9.823673129082
503 5.036243438721 -0.003748981281 -0.001085054792 -0.001844375334 0.150982736936 -0.461606685519 9.822820605040
504 5.044945478439 0.000850437712 0.001454410398 0.000084875898 0.125219475366 -0.444537603222 9.807995574474
505 5.056048393250 0.002166841230 -0.001321192526 0.001209802693 0.117776664197 -0.456184635535 9.800332798362
506 5.069085597992 -0.003710645285 0.001082452943 -0.002591550145 0.117593893027 -0.474413366877 9.826468098164
507 5.074814796448 -0.000744775495 0.001744806008 -0.001711736258 0.131819063220 -0.457498431802 9.827438735962
508 5.086040735245 -0.000003738637 0.002554105164 -0.002899220672 0.143625642294 -0.464396319017 9.826291512251
509 5.095817804337 0.001226327815 -0.002868596920 -0.002133540663 0.134895849824 -0.438593177609 9.797862349749
510 5.104768514633 0.003508194588 0.002677721091 0.001580490009 0.128732354622 -0.449253930822 9.805229256749
511 5.115634202957 0.000109457587 -0.000426732684 0.000468859035 0.126458829269 -0.449820124023 9.800004769564
512 5.128471136093 -0.002875021537 -0.003376485927 0.000155598730 0.134176888978 -0.446795322821 9.829383519888
513 5.135574579239 -0.002279600354 0.001080212208 0.001781925637 0.121695751352 -0.449334841669 9.834646013975
514 5.145533800125 -0.004942402542 0.000573324032 -0.005590454705 0.120095286202 -0.468295242414 9.817255225182
515 5.157342910767 0.001628605060 -0.003474731864 0.000456901663 0.124223000184 -0.455970919803 9.818070327044
516 5.168670177460 0.001629484371 0.006046672405 -0.003054021592 0.136873780154 -0.452550335191 9.827775535583
517 5.174361467361 -0.000603483941 0.000999453473 0.002543985932 0.140877039805 -0.472361140363 9.818625812531
518 5.187072753906 -0.000636424500 0.006771587975 0.000582322604 0.136209262367 -0.435016326159 9.820106327534
519 5.201727390289 0.000700804014 -0.001265552485 0.002269268122 0.109798193257 -0.452866633013 9.817017828226
520 5.205795764923 0.000421740329 -0.000047634600 0.000630134408 0.117794982428 -0.458670579270 9.822815927267
521 5.215026617050 0.001467570939 0.002468720942 0.000688745343 0.128581724865 -0.461017541997 9.791573669314
522 5.228312015533 -0.002407032092 -0.003175780589 0.000193306842 0.132808631379 -0.459566445798 9.790159227848
523 5.234892606735 0.001846612753 -0.001540290711 -0.002042230518 0.135352389459 -0.445539742894 9.801457802653
524 5.245274066925 -0.001387178844 0.001668611513 0.000822633686 0.132580516879 -0.441794491634 9.826017862558
525 5.264870643616 0.003067745194 -0.005147540847 0.002848304881 0.124774145940 -0.452175455578 9.832300111055
526 5.267472982407 0.003446574397 0.000190652068 -0.001169389743 0.140654471023 -0.455159801356 9.821086320877
527 5.274503231049 -0.000302679539 -0.001896167055 0.002581266546 0.144326403681 -0.464906196222 9.810293530226
528 5.286798954010 -0.001647873837 0.000289274528 0.000241463602 0.138331600651 -0.459438062869 9.805080737472
529 5.300984621048 -0.001459164296 -0.000679488517 0.003864177042 0.140991581278 -0.450945347585 9.841206589937
530 5.304672479630 0.000735074008 0.002290360149 0.001536234592 0.130966676222 -0.463716397472 9.810635007620
531 5.314881563187 -0.002210086128 -0.003880942213 -0.002148141756 0.139838409852 -0.452874526754 9.795156843066
532 5.328287363052 0.000974426131 0.001906905394 -0.001572182715 0.117953588152 -0.460905531272 9.808439962864
533 5.335616588593 0.000019175126 0.000399903871 0.004543022525 0.130565922679 -0.465365056470 9.827947443724
534 5.344100713730 0.003899174984 -0.005285743823 0.003794463859 0.140918701217 -0.463460325971 9.823018240929
535 5.357083797455 -0.002186505969 -0.001746208459 -0.001417607280 0.143448444251 -0.459693549648 9.811636050940
536 5.365573883057 -0.000180717294 -0.004033947580 -0.003457308445 0.129074937506 -0.444230843671 9.780728253722
537 5.375357389450 0.001339483814 -0.000333664826 -0.000890542083 0.146165270777 -0.451662910581 9.814526914358
538 5.387571096420 0.001865869697 -0.004091289547 -0.001839656155 0.153631881941 -0.439954372868 9.828631567955
539 5.397691726685 -0.001427209354 0.000195843428 0.000081803486 0.136011361526 -0.454305340424 9.815223902464
540 5.405834197998 0.003206805115 -0.002316879928 0.002793183168 0.136779365893 -0.472971516587 9.807105628252
541 5.414648532867 0.000498789396 0.002637717759 -0.001533738399 0.155292673912 -0.477640847191 9.813491957188
542 5.426777601242 -0.002369913244 -0.005485667639 -0.002102924453 0.143402306065 -0.454638266265 9.806960032582
543 5.435354948044 -0.001148002141 0.002444139237 -0.000165643971 0.156921836101 -0.452496358082 9.830217332840
544 5.444381713867 -0.004001855968 0.002955514280 -0.001208318969 0.161059764437 -0.474119288474 9.824626225233
545 5.466181039810 0.002269553683 -0.005263274442 0.000140434674 0.121836130209 -0.455559933633 9.806825546622
546 5.468957901001 -0.000657324658 0.001329713471 -0.002316748331 0.104317460982 -0.436269969195 9.822931702137
547 5.474343776703 0.000316790131 -0.003812618607 -0.001554305726 0.118635949083 -0.459010631405 9.829337911606
548 5.487837553024 0.002025713197 -0.000983645636 0.000426745427 0.125502169970 -0.453052830286 9.820169477463
549 5.497638225555 0.001385664301 0.001764584791 0.001347943251 0.143865515180 -0.452567328662 9.829627933502
550 5.505879163742 -0.001312364954 -0.001027719131 -0.000644539404 0.118481564317 -0.472653574236 9.826656378508
551 5.514508962631 -0.000818769372 -0.001371026668 0.000600828062 0.110038952362 -0.512023059949 9.816189862490
552 5.528412103653 0.000993859665 0.007315102743 0.003030748061 0.083532400047 -0.584910576493 9.829492278099
553 5.537420034409 0.002648881709 -0.008490031679 0.000178737657 0.095905839270 -0.675702340454 9.829454855919
554 5.544904947281 0.010732415398 -0.002200963761 -0.001857239650 0.101263058251 -0.721815675795 9.813792504072
555 5.559547185898 0.014108138527 -0.001136430654 -0.002181690173 0.123074479122 -0.716235239357 9.810575366020
556 5.567801713943 0.016209737771 0.001442321623 0.001654902345 0.141781914700 -0.691219900623 9.826009676456
557 5.575041294098 0.018328869146 -0.004723009563 -0.001893935357 0.138285389375 -0.672397347987 9.820277066231
558 5.589608430862 0.023200845641 -0.004677407610 -0.002644056810 0.145775809670 -0.607151338309 9.805860756040
559 5.599589347839 0.020908993706 -0.003012176153 -0.003298152061 0.156101617925 -0.490489043780 9.801445523500
560 5.604724645615 0.017839633970 0.007131782593 0.002804639963 0.173117033746 -0.386326049790 9.819852558374
561 5.614284276962 0.021764186747 -0.000164514517 -0.001084990683 0.163304949068 -0.277201894317 9.835824812651
562 5.629056930542 0.017582547379 -0.006010576169 -0.002623414711 0.160064732786 -0.194444296025 9.827246947289
563 5.637363195419 0.011440081798 0.003225795222 -0.001239412675 0.202443360128 -0.139158378672 9.824291764498
564 5.643722534180 0.007115856681 0.002396275678 -0.000056897712 0.287318271752 -0.157459944393 9.825475240946
565 5.657754182816 0.006563839563 -0.001915257291 -0.001003005959 0.288403990064 -0.256584392656 9.817155822515
566 5.667086124420 0.001725327482 0.010417709860 -0.004258479107 0.282697198950 -0.290762957856 9.817705460787
567 5.674236536026 0.001664948887 0.010294193281 0.002256807701 0.340773023888 -0.295625264850 9.820139071941
568 5.684040307999 -0.001895289304 0.016220516292 -0.000369300633 0.363896678723 -0.207470832691 9.828728631735
569 5.702650785446 -0.007091771198 0.017518356874 -0.008212113655 0.297885688785 -0.147242949167 9.806654807925
570 5.704659223557 -0.010902172151 0.020904112631 0.001405059474 0.329905352332 -0.217261300944 9.807288061380
571 5.713966131210 -0.011114044301 0.030861952827 0.015774584531 0.240265160948 -0.460226011723 9.812806663513
572 5.724974155426 -0.003209185835 0.018704899170 -0.001874741612 -0.001730619945 -0.670135279521 9.833999311924
573 5.737254381180 -0.001352452160 0.021220396300 -0.001158353229 0.127286520917 -0.731562399566 9.840095618963
574 5.744533300400 0.004795259251 0.018735286254 0.009928368574 0.233082258515 -0.731965126544 9.837871338129
575 5.757488727570 0.006022543749 0.024393717106 0.003058926594 0.369022567235 -0.618333334252 9.828017610312
576 5.766175985336 0.005841490407 0.023579557551 -0.001136941310 0.496418412812 -0.404296297655 9.822967954874
577 5.773792982101 0.001374480325 0.035167017227 0.001977154330 0.575758149102 -0.229657471217 9.805263170600
578 5.786249160767 -0.003675344096 0.047645362545 0.000460669360 0.562332357243 -0.093185020192 9.817504316568
579 5.799858331680 -0.006542522311 0.048702620853 0.000333080212 0.531603082828 -0.041758621484 9.814214673042
580 5.803831577301 -0.009630604277 0.050042240815 0.004978967952 0.547337940149 -0.048176242160 9.816608523130
581 5.813726663589 -0.013066169468 0.058613246115 0.006713402066 0.616626532003 -0.095982666202 9.822744591236
582 5.826910495758 -0.017315571721 0.069710559315 0.012326675172 0.713345472291 -0.263204756398 9.813182054758
583 5.835712671280 -0.014299860118 0.081774108970 0.003300108340 0.728859962672 -0.428546674401 9.807558202744
584 5.844404935837 -0.015653994308 0.087032936662 -0.000788738849 0.674870135486 -0.490783670358 9.840368099213
585 5.857050180435 -0.017997542778 0.100915163186 0.000961979364 0.621628167182 -0.493560330346 9.816913747787
586 5.868173360825 -0.020193635347 0.107255791880 0.005372774055 0.489268072061 -0.552590713240 9.805929753184
587 5.874714136124 -0.018562923555 0.107206456820 -0.000558282048 0.273577241879 -0.681606566459 9.812247669697
588 5.886157512665 -0.009297275337 0.110086748763 0.000161336327 0.183012094069 -0.789095347077 9.790554499626
589 5.894626140594 -0.003622524301 0.108945259663 0.007705868057 0.074353185100 -0.847534393743 9.823757328987
590 5.905475616455 0.005854625721 0.110477001731 0.008808485408 0.008778546486 -0.969469524622 9.827023583651
591 5.913581371307 0.017935330919 0.109825109831 0.006971416082 0.024139741031 -1.161850447878 9.857353091240
592 5.931076049805 0.027822079278 0.113722837501 -0.004179247204 -0.043903019303 -1.323934754133 9.930892353058
593 5.934573411942 0.042147029286 0.109567365771 -0.006109577102 -0.144101596512 -1.350903720707 9.837064422369
594 5.944422960281 0.051572235184 0.106523822054 -0.000267913843 -0.250153624881 -1.139954306334 9.804172080159
595 5.958653688431 0.067102221893 0.093986042471 0.009819286119 -0.273642109428 -0.808483179286 9.868226573467
596 5.971672296524 0.059580610253 0.088885781056 0.011657168958 -0.320919534042 -0.340050965846 9.967702914476
597 5.973778247833 0.058841836883 0.072151916537 0.015706071591 -0.417507533245 0.050996865900 10.018359682560
598 5.983456611633 0.051220885173 0.078535788309 0.032252310169 -0.351541877501 0.340048480779 9.960889738798
599 5.995701789856 0.026276998518 0.071820502784 0.028566936307 -0.371080019698 0.606451572776 9.969673426151
600 6.007248163223 0.005115150150 0.064516417310 0.032733724390 -0.416195710413 0.623018123433 10.252459977865
601 6.013561964035 -0.017356080898 0.054456105749 0.017589313473 -0.769683614373 0.522970180549 10.411690185070
602 6.024576187134 -0.039653182824 0.025401642435 0.001692225352 -1.315945557207 0.446156002879 10.179490234852
603 6.035975694656 -0.064043231841 0.005132399320 0.019994819969 -1.352456448823 0.529170092940 10.052865271568
604 6.044178247452 -0.089482146048 -0.017299384695 0.036294208481 -1.397425776422 0.583314030804 10.113166437149
605 6.059494256973 -0.104644562431 -0.042063580798 0.045567243851 -1.164256284758 0.527065204941 10.200949516296
606 6.070594310760 -0.116970887023 -0.068297040794 0.048977554785 -1.365676711053 0.343315100893 10.254377864599
607 6.074240207672 -0.115966475818 -0.091827816724 0.097184698678 -1.369026434720 0.075726997554 10.311356642246
608 6.083718299866 -0.113173294210 -0.120666763727 0.145512841630 -1.458637499660 -0.097743610013 10.421757920980
609 6.102226495743 -0.110216228326 -0.150749548440 0.134149557700 -1.628768963367 -0.167458061893 10.397852164507
610 6.104757308960 -0.114573143225 -0.197043144511 0.144029610706 -1.727948265821 -0.218735621553 10.251274162531
611 6.113553047180 -0.108029282051 -0.225447022538 0.175984797402 -1.384144703150 -0.243967800625 10.070629112720
612 6.127345561981 -0.112310837813 -0.233535691914 0.175298151249 -0.636607783511 -0.105349649861 9.800417582989
613 6.138209342957 -0.120402461634 -0.242464006047 0.142530750355 0.349868221655 -0.050596098653 9.393404595852
614 6.143704175949 -0.129163520928 -0.215570456609 0.162329322399 1.087701833099 -0.308245949931 9.265885593295
615 6.156024217606 -0.123109440046 -0.185742386609 0.167964704424 0.979672623575 -0.706368501484 9.485352646708
616 6.167877435684 -0.112155017922 -0.185357526542 0.149240185247 0.304438425824 -0.919400547892 9.945161898136
617 6.174190282822 -0.097473227215 -0.191640805726 0.149806423229 -0.275466184895 -0.952918980718 10.496913353205
618 6.183340311050 -0.086148184613 -0.195526041506 0.182704502109 -0.295195348319 -0.806722436473 10.765512220860
619 6.196765184402 -0.085254161435 -0.192270077402 0.179522690397 0.152969913175 -0.583118660711 10.672050325871
620 6.205118894577 -0.091812553482 -0.174027923278 0.172684175415 0.978276308477 -0.419960842207 10.433673377037
621 6.214058160782 -0.097844330390 -0.122542294925 0.191931206798 1.797198156416 -0.469258169197 10.235720568895
622 6.226791858673 -0.113687742031 -0.082473671454 0.179913309550 1.937904530615 -0.586776715368 10.058652845621
623 6.236846685410 -0.121706436849 -0.057844179288 0.177505828569 1.443662488014 -0.777894493863 10.084899827242
624 6.244272708893 -0.119240682575 -0.036786656095 0.190471544849 0.678423342258 -0.988405001611 10.309576749802
625 6.259172677994 -0.111639488192 -0.043432811783 0.208480189680 0.080694536157 -1.145840552151 10.535371659994
626 6.267102003098 -0.100485179184 -0.048840002514 0.226442944917 -0.022038432166 -1.235728775114 10.643407155275
627 6.274329662323 -0.079798933936 -0.040623921686 0.246875515748 0.417923964635 -1.238406361341 10.502423769236
628 6.283537387848 -0.066321957305 -0.018981037766 0.262635270842 1.225581151620 -1.163758832887 10.102263718843
629 6.297708749771 -0.063659903092 0.022050095815 0.262943814699 1.898600277901 -1.041287366152 9.888848533630
630 6.306249380112 -0.058639985917 0.054281052842 0.238364202707 1.798450045288 -1.116874030530 10.113934761286
631 6.313669204712 -0.048240375150 0.075120750264 0.227084284042 1.005843006670 -1.358900811374 10.405579844713
632 6.328885793686 -0.026846049464 0.074649012889 0.232762093551 0.151950515080 -1.613226333261 10.542981226444
633 6.334640979767 -0.006962781095 0.061762446588 0.244517502985 -0.270842901114 -1.677857800573 10.490152802467
634 6.344277620316 0.018030836453 0.059625983860 0.270600802307 -0.058853582279 -1.588661010861 10.227687664032
635 6.356220245361 0.031035337097 0.070885799821 0.289065396961 0.605787913799 -1.477617269307 9.897590121031
636 6.369939327240 0.039790189978 0.099395838107 0.292946321749 1.259836552888 -1.435550645739 9.722764804959
637 6.374243497849 0.056079706069 0.120710980524 0.272879053396 1.331926289946 -1.496803445667 9.822235883474
638 6.383746385574 0.078808887156 0.126529920926 0.244864113401 0.900767518133 -1.571176228076 9.996392862797
639 6.401398181915 0.095622921146 0.126456126397 0.226530446403 0.282844274696 -1.553138737231 10.231087235212
640 6.404441595078 0.118474416228 0.112650840261 0.214611951643 -0.234601474777 -1.478188834637 10.333301242590
641 6.413796424866 0.134939301477 0.099365627873 0.206667658887 -0.365696049705 -1.305912319869 10.161359188557
642 6.428611040115 0.149504770301 0.108029614946 0.215109030660 0.004247673837 -1.222606526837 9.983733640909
643 6.434841632843 0.168497120260 0.116965335996 0.197816409978 0.594701994918 -1.275743025988 9.925352700949
644 6.443524599075 0.183488070681 0.139752790377 0.142464271196 0.843427309468 -1.408669679761 9.916377224922
645 6.456373453140 0.199428221649 0.159191486134 0.090912746251 0.562461069077 -1.490372970253 10.028425079584
646 6.464982271194 0.221528780205 0.149628224463 0.057545497449 -0.109941486586 -1.405916956812 10.131022664309
647 6.473900079727 0.230874628063 0.134206507736 0.034680126882 -0.705745334476 -1.073725087345 10.165728228092
648 6.483465671539 0.246038767179 0.113474772368 0.006105389385 -0.872519034594 -0.677160124406 10.182353031635
649 6.495165824890 0.245221309882 0.107516648508 -0.018208028212 -0.629931798130 -0.478732851259 10.087960259914
650 6.506101369858 0.246983573510 0.122458247225 -0.039353323369 -0.158583779242 -0.518165633082 9.925600622892
651 6.513792037964 0.253668124490 0.133142025603 -0.077869348891 0.094497455154 -0.627511635572 9.794055227637
652 6.534751176834 0.253182996408 0.139419320997 -0.121330531662 -0.030189562705 -0.740281986818 9.847773013115
653 6.537860631943 0.262348415103 0.129804102717 -0.155249558313 -0.447250711285 -0.716119245216 10.042408111095
654 6.543567419052 0.270455959633 0.108540866974 -0.189972518395 -1.055267766416 -0.457692157365 10.122465848923
655 6.569028854370 0.268276362018 0.084025087625 -0.203631888271 -1.336087753326 -0.035286290513 10.021539398432
656 6.570888280869 0.255447448994 0.075699255432 -0.208549431869 -1.126235568970 0.289038248509 9.914431271553
657 6.573879718781 0.246208610277 0.068079930747 -0.212126556555 -0.746198053434 0.306521989759 9.872103277445
658 6.584012031555 0.238451254785 0.070153938186 -0.225335569246 -0.385298438184 0.147828630041 9.935021656752
659 6.596486806870 0.231110900386 0.074349873319 -0.226902173757 -0.275074768625 -0.062515629488 10.134766051769
660 6.604287385941 0.238146772249 0.065254191995 -0.245026666096 -0.499148148894 -0.048813908435 10.240344547033
661 6.614577770233 0.233519213605 0.051940637748 -0.254572384194 -0.841894023344 0.248504545614 10.188666855097
662 6.634691238403 0.220713286990 0.023848364132 -0.245721035416 -1.131750078052 0.657569028363 10.166032283306
663 6.638274908066 0.205365090153 0.004100795264 -0.222346836713 -1.242790018916 0.906849060953 10.133552169800
664 6.643351793289 0.183292111959 -0.025703740610 -0.198197325237 -1.051759217754 0.861613392681 10.157124634981
665 6.659147024155 0.171026157900 -0.032366106210 -0.160203037940 -0.622331952676 0.567742054984 10.335200418234
666 6.669997930527 0.168955017520 -0.034057109473 -0.150226853142 -0.383206633329 0.234067770168 10.462536402941
667 6.674271106720 0.157072924842 -0.038990725664 -0.157205999673 -0.362681371495 0.137300014766 10.518635759354
668 6.684085845947 0.149776845496 -0.051881507249 -0.144749130253 -0.509924969338 0.271137454603 10.702832407951
669 6.696464538574 0.127562852922 -0.060616808783 -0.124840819327 -0.904027340859 0.567447355315 10.924476964474
670 6.704934835434 0.111281293025 -0.082345789788 -0.104515307572 -1.118735564724 0.848377123699 11.027670965195
671 6.714150667191 0.093332352937 -0.095953386148 -0.073377494948 -0.876930466443 1.027356155589 11.076297580004
672 6.732944726944 0.067299050303 -0.092556307795 -0.061133491162 -0.411059991270 1.041077304929 11.171572111845
673 6.736232519150 0.046720263606 -0.078818990523 -0.063787926239 -0.011743839135 0.827731482312 11.326332707405
674 6.744274854660 0.035717521753 -0.077029213113 -0.069554693651 0.017358053522 0.561966650449 11.368570654392
675 6.756774187088 0.021194990159 -0.076379926117 -0.063403057849 -0.176806809548 0.406175592765 11.310718302727
676 6.765890836716 0.008632545127 -0.086153203007 -0.053544534836 -0.404185017832 0.445164095834 11.301227102280
677 6.773652315140 -0.007696559997 -0.090727082311 -0.037908991241 -0.445724843815 0.690048191696 11.389104906321
678 6.784056901932 -0.028526227393 -0.099184366472 -0.033597277260 -0.311114301570 0.801889566556 11.467150032520
679 6.795957088470 -0.043956963497 -0.089877184383 -0.026699673392 -0.048254613122 0.696984231994 11.470609245300
680 6.803911924362 -0.047019827616 -0.075134848373 -0.019387737834 0.187668451164 0.408684779182 11.371896550655
681 6.812789678574 -0.048506882674 -0.074135006153 -0.026973652331 0.351135276742 0.175039653070 11.264477351904
682 6.824857473373 -0.049307458026 -0.072023002896 -0.027842290174 0.340448247604 0.078519125255 11.230976314545
683 6.838062047958 -0.062899416636 -0.067488559182 -0.028045637088 0.176915768757 0.179379346892 11.222522410154
684 6.845132350922 -0.072762820724 -0.074543418551 -0.015148173673 -0.009816540896 0.341376858540 11.165820790529
685 6.855113983154 -0.079430710303 -0.080250705925 -0.000857216744 -0.011996254984 0.450223399177 11.091458240747
686 6.867499113083 -0.079349900009 -0.082338915503 0.029101474349 0.210608393792 0.384175918959 11.029982954264
687 6.873986244202 -0.080176445343 -0.072167770668 0.022809918560 0.505019740127 0.170331475027 10.953875595331
688 6.884302377701 -0.072362014980 -0.066266987996 0.015169695343 0.717773349434 -0.091022199076 10.831157741547
689 6.896539688110 -0.067888940485 -0.054564542179 0.013584981337 0.707313119173 -0.355952359177 10.715173541307
690 6.903312444687 -0.056384155316 -0.053646321686 0.017972600610 0.414471622333 -0.511458438188 10.513932259083
691 6.912928342819 -0.055686319725 -0.065745120774 0.030208421418 0.111029132651 -0.509884952456 10.417609906197
692 6.931846857071 -0.049625630875 -0.076633542276 0.057325715919 0.014832985976 -0.392653066032 10.356104214191
693 6.939288377762 -0.050360792332 -0.075392001543 0.076989681815 0.146517108707 -0.289413859025 10.183343549967
694 6.942664861679 -0.044412372366 -0.070080942605 0.072571614080 0.372779622562 -0.304762434661 10.021213123798
695 6.955292701721 -0.032815067317 -0.061603018946 0.067189040944 0.590989488065 -0.440502841696 9.885141398907
696 6.965405464172 -0.009811461003 -0.043318179343 0.047784754061 0.598642835543 -0.479311981425 9.786509395838
697 6.973739624023 0.006527854119 -0.035907671455 0.026113534523 0.423744210005 -0.307931296639 9.595530561805
698 6.982259273529 0.018555450059 -0.032590600287 0.011066327945 0.259979834240 -0.022466921154 9.435969986916
699 6.997184038162 0.023345652945 -0.024396519666 0.012706201635 0.205918415207 0.203790869247 9.346971271634
700 7.003605604172 0.021632566251 -0.019744243558 0.009185742983 0.244515977092 0.276142360568 9.446136540771
701 7.012588739395 0.023031083686 -0.003147821819 0.000183029338 0.285294075329 0.129598217625 9.707751494050
702 7.025076389313 0.018810967882 0.022194728349 0.005561600499 0.372595215999 -0.002679826899 9.925266162157
703 7.037658929825 0.017331621428 0.041255598529 0.007700513127 0.445494902059 0.053283497239 10.015024430752
704 7.043674707413 0.000930703541 0.059950585746 0.007980586128 0.407213071547 0.179100233708 9.896385594606
705 7.055321216583 -0.019039741742 0.069812271263 0.027052525592 0.259837801717 0.364195983075 9.767971968055
706 7.064041137695 -0.038463527959 0.066535239058 0.065752473596 0.035435741690 0.481357629821 9.731915112734
707 7.074158430099 -0.052525288992 0.065528655712 0.095876237700 -0.152232661508 0.389503244050 9.715527706146
708 7.083054065704 -0.063355861641 0.049562172739 0.121443757620 -0.179217086658 0.188229820412 9.628644513488
709 7.095860481262 -0.073444440160 0.043772406434 0.150213687139 -0.009515489233 0.063228834481 9.621054242849
710 7.103137016296 -0.076823026188 0.053534485565 0.164524033454 0.149017113168 -0.102876295913 9.689431582689
711 7.112861394882 -0.082529672739 0.050097251737 0.170371303233 0.238227406293 -0.191184747387 9.884260808229
712 7.134998559952 -0.085317977433 0.061846273745 0.176926640966 0.279209407903 -0.210515934695 10.176718654633
713 7.137716770172 -0.086732249130 0.065636601121 0.170343140304 0.193086408097 -0.194026293196 10.412458509207
714 7.143154144287 -0.093845236151 0.075870005669 0.170267390016 0.224778280389 -0.142711850395 10.558030790091
715 7.152379512787 -0.092312079279 0.096770668674 0.173020282990 0.339330186881 -0.119258494824 10.608997460604
716 7.170441389084 -0.092466292950 0.095710489211 0.167047328652 0.427347556651 -0.160555935446 10.530098640919
717 7.173109531403 -0.094681260674 0.107463834695 0.165113207911 0.520079244040 -0.227481978089 10.402165070772
718 7.183527946472 -0.092158389917 0.121277393275 0.173068869035 0.594163941443 -0.315442410596 10.410940572023
719 7.195548057556 -0.094070190039 0.125641224071 0.172689668185 0.540142502747 -0.416181567460 10.534706246853
720 7.204230070114 -0.087374495394 0.130905394729 0.163253039823 0.450467776246 -0.504604770541 10.662876044512
721 7.213765144348 -0.085575446854 0.137942864488 0.158148192777 0.359781115986 -0.550786408670 10.721683831215
722 7.224488258362 -0.073299039887 0.143342298763 0.161074723855 0.334100948833 -0.503809220307 10.742088274956
723 7.235344171524 -0.065408967427 0.151036454113 0.148252285641 0.361087749414 -0.441138324402 10.714183022976
724 7.243054866791 -0.059161108286 0.168266490510 0.134459624552 0.436476375908 -0.457355650105 10.723749067783
725 7.252970218658 -0.047836506771 0.173712738163 0.112685253295 0.384876671210 -0.470634896122 10.663065494299
726 7.268744230270 -0.038883637460 0.185824911314 0.103404186831 0.283835322931 -0.472159155607 10.629786651134
727 7.273156881332 -0.031827051197 0.191040828822 0.095783959168 0.133686974533 -0.532861915268 10.658232185841
728 7.282890319824 -0.024708063741 0.200150554160 0.084425352415 -0.041569107743 -0.528237425499 10.584725668430
729 7.301527023315 -0.025947671602 0.190205495056 0.080809770017 -0.091023140112 -0.507958769985 10.442855844498
730 7.305362462997 -0.014978989082 0.199290819181 0.084756999194 -0.052381564225 -0.491142433584 10.403056186438
731 7.312708616257 -0.012055617388 0.201084707847 0.083978931714 -0.089694195902 -0.493551011346 10.383967366219
732 7.331605434418 -0.005216895388 0.201846821327 0.078278526947 -0.174774372205 -0.543185795769 10.326210908890
733 7.337056636810 -0.004074545182 0.193651475704 0.080727153767 -0.277581268977 -0.596285822913 10.283058457375
734 7.342798233032 0.009307677270 0.190704721248 0.091077479409 -0.349235954918 -0.542623366714 10.274737869501
735 7.352973937988 0.014741920932 0.179029822503 0.089194557939 -0.403620944247 -0.375151728317 10.208723974228
736 7.369464874268 0.014298349606 0.173261931569 0.089677497236 -0.355605034567 -0.170609729402 10.086593180895
737 7.374636650085 0.011943574248 0.172178091585 0.102474652064 -0.316129348800 -0.119881844558 10.033781129122
738 7.383228540421 0.018164905808 0.162037489878 0.103277961317 -0.395834024437 -0.250748652164 9.974746470451
739 7.395557403564 0.022594972332 0.150566372891 0.101973370246 -0.513324248157 -0.484109987319 9.943355108500
740 7.404201507568 0.034191049831 0.144131410039 0.114400279103 -0.562805762440 -0.624602572694 9.897424060106
741 7.413039207458 0.043391824069 0.129078025135 0.116680910392 -0.553041423932 -0.606676946394 9.854512513876
742 7.427659749985 0.048402299505 0.113407968636 0.116448974028 -0.521169822849 -0.473771890774 9.802130232453
743 7.434972524643 0.048992189687 0.105267542389 0.116946011434 -0.569064622074 -0.369432310872 9.701979122758
744 7.442712068558 0.050607783879 0.090196988418 0.120969307149 -0.698218067586 -0.277414294425 9.606506370306
745 7.453087568283 0.049908183944 0.084690669838 0.125771294523 -0.705928279236 -0.267380326185 9.589005653858
746 7.464834213257 0.052783540716 0.070009827882 0.120182401304 -0.661002074853 -0.318749559224 9.701350547075
747 7.473558187485 0.051679943405 0.072247199448 0.108721795481 -0.542283570394 -0.343343752250 9.818921681643
748 7.482559919357 0.055196955553 0.073918965532 0.086635534770 -0.444752671123 -0.324216303863 9.894282935858
749 7.495452165604 0.053416520012 0.070251759422 0.077476124833 -0.430229137614 -0.252790390234 9.973194619417
750 7.504755258560 0.050645475930 0.080200363858 0.054634067328 -0.491770132184 -0.223438847736 9.977076001167
751 7.512803077698 0.056746986047 0.075575443408 0.037229593880 -0.513040183112 -0.208507343028 9.888095412254
752 7.525459051132 0.053902401269 0.077701419939 0.026364160868 -0.484624432661 -0.177450423539 9.800533357859
753 7.537503719330 0.054349417019 0.080842144069 0.013253479159 -0.411394561641 -0.210682964064 9.817782644033
754 7.543002128601 0.061801153970 0.082522016151 -0.017512593627 -0.445078616850 -0.277247612234 9.786321700215
755 7.553019046783 0.071692987302 0.079375591191 -0.039375648149 -0.556947729439 -0.287795587275 9.645392693281
756 7.565285205841 0.075367067697 0.077376996984 -0.035315492619 -0.592587824464 -0.230183135904 9.550377777815
757 7.573680639267 0.078184575617 0.068606462662 -0.040781472632 -0.602384066842 -0.178860461321 9.540778988600
758 7.583125829697 0.073701776423 0.075329741830 -0.050437258345 -0.636883845180 -0.167120366916 9.591001893282
759 7.594645500183 0.073125468363 0.071441892823 -0.056443814286 -0.646843261421 -0.209002419468 9.657775341868
760 7.605865955353 0.071189841271 0.075123779610 -0.044472905186 -0.620621934459 -0.274836074319 9.731794660091
761 7.612362861633 0.077924218331 0.072963806163 -0.043779767578 -0.635136550963 -0.287933069933 9.774933663011
762 7.627939701080 0.081186449186 0.071551997890 -0.042701952995 -0.614997059181 -0.178146772105 9.783612100482
763 7.637434005737 0.078722151328 0.068105651057 -0.028855712434 -0.566121718436 -0.046785372281 9.783919664025
764 7.643143415451 0.072465245762 0.068073813799 -0.018776240678 -0.577481323555 0.032915157771 9.770497965217
765 7.652764797211 0.066464057755 0.068657757641 0.000927586225 -0.624296617135 -0.048653712999 9.773254342675
766 7.672675132751 0.060554561553 0.066093071093 0.024501248476 -0.644014963210 -0.182096602824 9.842642666101
767 7.676703929901 0.064674338602 0.064151289602 0.033433988035 -0.675790121779 -0.257556583621 9.867771660089
768 7.683485984802 0.063092121308 0.054295862514 0.041688549460 -0.710459067374 -0.204756153189 9.857362446785
769 7.695244550705 0.064764965141 0.061337926227 0.053211897694 -0.677945551649 -0.109707378689 9.767349824309
770 7.703552484512 0.056735663451 0.058412406319 0.065312094942 -0.623404916748 0.009957421107 9.758035209775
771 7.712991237640 0.065718093851 0.052518115102 0.069689645178 -0.572607961670 -0.017145879536 9.853847100735
772 7.726427555084 0.059864374228 0.049941377750 0.061623633477 -0.657839023545 0.111404094491 9.772563201785
773 7.737582921982 0.057637597050 0.054206871322 0.080634475761 -0.562224110663 0.037018244925 9.804770250320
774 7.743268251419 0.057544935689 0.055232021894 0.091215813983 -0.499227707572 -0.006841162942 9.826707834005
775 7.753181695938 0.061433816671 0.053186173222 0.079414340185 -0.494704813175 -0.027570862051 9.726296523213
776 7.770903348923 0.059672476827 0.057542272528 0.081275149095 -0.423247854486 -0.029109291898 9.565899211764
777 7.773818969727 0.057314751186 0.062405079843 0.088837353136 -0.459888663925 -0.027555177351 9.378678383231
778 7.782626628876 0.059215232874 0.057516760277 0.087818802210 -0.596559362970 0.012834044499 9.201476758718
779 7.796641588211 0.054973370696 0.055200413501 0.090890109382 -0.693859772310 0.034306516440 9.122213072777
780 7.805120468140 0.054407353257 0.045933062316 0.103957841377 -0.710070081353 0.044673814801 9.068753734231
781 7.813413143158 0.052491108984 0.033397708706 0.109282499081 -0.700603512302 0.086046830686 9.103235934377
782 7.824547290802 0.050440791195 0.041164081495 0.106403921548 -0.601172012128 0.157769609280 9.135126063824
783 7.840366840363 0.045544552886 0.038542295109 0.104661789754 -0.555492138192 0.207672451995 9.180715050101
784 7.843363046646 0.042318528538 0.055304971702 0.089304255209 -0.599234756492 0.280382322818 9.235798745155
785 7.853324651718 0.037014293950 0.053743152558 0.072517610167 -0.649638303593 0.367702887207 9.211707631946
786 7.866048574448 0.034682900314 0.061523540232 0.065099508108 -0.712689707056 0.368992892615 9.196355767250
787 7.873370647430 0.030107325326 0.059704909136 0.053427975766 -0.742764714584 0.293560631275 9.132238124013
788 7.882870197296 0.033977849222 0.058058272473 0.043436273892 -0.714685946479 0.185737097561 9.089689105153
789 7.896300792694 0.045032306334 0.055832493980 0.025145315261 -0.642148531973 0.173376924209 9.039317096472
790 7.904363870621 0.045341162280 0.052583687121 0.011046072316 -0.658638849556 0.232701056600 9.008350827098
791 7.912841320038 0.047966131976 0.048504594020 0.011722877256 -0.675151240379 0.357005186900 9.000574615002
792 7.928530216217 0.038243725623 0.049368510994 0.008153523070 -0.739043181092 0.449614594392 9.052816563249
793 7.937237739563 0.038260536827 0.035591188049 0.007029279499 -0.818335079849 0.411835149340 9.169857355356
794 7.942400217056 0.031602453090 0.036030892590 0.004019574832 -0.873105437234 0.327366162390 9.225741534233
795 7.952703952789 0.032987020138 0.041488650092 0.002880163986 -0.888111804575 0.207754002381 9.245043193102
796 7.968904256821 0.032463201319 0.038207444214 -0.010957844702 -0.904937606156 0.162591296397 9.255174663663
797 7.972167491913 0.030850734261 0.034977803793 -0.025578615731 -0.947733231336 0.177715850584 9.213194578886
798 7.981815099716 0.029598120603 0.033602903188 -0.031152029326 -0.999569382817 0.255540591571 9.163914245367
799 7.994051456451 0.029975457240 0.024453552926 -0.030826736683 -1.071709405929 0.353380717188 9.199540160894
800 8.004074811935 0.024064877048 0.018462684669 -0.034397815161 -1.086957482547 0.372829506621 9.287066547275
801 8.012629032135 0.023212211930 0.016600708545 -0.051445077564 -1.083552283421 0.282160570733 9.384099921584
802 8.024939298630 0.022363456248 0.012907476276 -0.062379388660 -1.016416380554 0.176923607681 9.399660531878
803 8.034964561462 0.022184959957 0.012905792035 -0.066294951187 -0.972096970975 0.114788700454 9.465998362899
804 8.042047262192 0.021284790703 0.018368200706 -0.082764330520 -0.959581444412 0.128712547179 9.532439689636
805 8.052479267120 0.024372931965 0.023930524732 -0.097207002652 -0.951590639502 0.197676582020 9.617290390134
806 8.070748567581 0.025221866578 0.027980876500 -0.105392735927 -0.929763714373 0.223550182376 9.703737380505
807 8.073905706406 0.027639172126 0.022548826825 -0.124436917658 -0.969857268110 0.252892332785 9.716151604056
808 8.081918954849 0.024861243357 0.024677424905 -0.139049075026 -0.989596444890 0.250222640298 9.672730180621
809 8.094200611115 0.028599023237 0.035182105699 -0.149256114279 -0.967186260000 0.184046356883 9.614128215909
810 8.105487108231 0.035031345815 0.031615981116 -0.168991452893 -0.945367740244 0.102373161279 9.586270326376
811 8.112229347229 0.044365775370 0.031581087464 -0.182945701280 -0.947426910326 0.027624261291 9.608471619487
812 8.123254537582 0.043911843723 0.045608776680 -0.191994423584 -0.929446210563 0.020687661397 9.706586728692
813 8.135049343109 0.044952303310 0.045308625942 -0.200606703720 -0.966810722575 0.075085128592 9.804572029710
814 8.142427206039 0.045246607578 0.059381193583 -0.212224178054 -0.977212480679 0.186759391855 9.813785487413
815 8.153918981552 0.046516232177 0.057262103820 -0.222428828785 -0.973758530393 0.315642531551 9.792460691929
816 8.166040658951 0.050420817487 0.061575342877 -0.223291959294 -0.928583526984 0.393397526219 9.800083706975
817 8.171866893768 0.048959029170 0.063216016556 -0.230625922107 -0.885826347247 0.389765418582 9.778754233718
818 8.182271718979 0.043867169196 0.069593263714 -0.221232952942 -0.811109821647 0.307657793127 9.763566091061
819 8.194036722183 0.043842826239 0.075063866807 -0.228430362170 -0.784311739951 0.243237063121 9.779937710166
820 8.204786777496 0.046201895944 0.076868041933 -0.230045752463 -0.846469615772 0.259412617777 9.813172699213
821 8.212744235992 0.044240440351 0.077492703011 -0.226077226320 -0.938753150627 0.390441320166 9.845176849365
822 8.223629951477 0.036215782548 0.075190300380 -0.215891533967 -0.930833901018 0.532211485617 9.870337418318
823 8.239512443542 0.031060429068 0.084540941928 -0.202288489949 -0.944831916019 0.649711393788 9.897434585094
824 8.243294000626 0.021090573438 0.089283682290 -0.197606153410 -0.898954735100 0.676418843642 9.910207242966
825 8.252256631851 0.014251769254 0.093659239316 -0.192084122179 -0.840803809986 0.633656255230 10.013644487858
826 8.267327308655 0.006117830301 0.105324309332 -0.187251117301 -0.873357232958 0.554387708791 10.031810617447
827 8.273105621338 0.004370773739 0.104318891119 -0.197827695123 -0.968210034370 0.608162468076 9.999103631973
828 8.282206296921 -0.005705409637 0.102376389742 -0.180439350444 -1.049064528421 0.757469584867 9.910360440016
829 8.296054601669 -0.022193542410 0.106334579491 -0.163616361575 -1.121872230470 0.895439096689 9.833649648428
830 8.305518388748 -0.030245974070 0.099508406597 -0.143822766313 -1.190629785508 0.887078967020 9.773561321497
831 8.313169479370 -0.043283204548 0.105409738546 -0.133108835958 -1.205654644668 0.773944553509 9.694145607948
832 8.324493169785 -0.048664183948 0.094820086268 -0.134130932217 -1.215420079529 0.640263389647 9.617960481048
833 8.335962057114 -0.059376033708 0.097644560019 -0.128956093969 -1.286834463179 0.514928431772 9.677304457426
834 8.343455791473 -0.073554362134 0.101207544985 -0.122327377825 -1.412492881715 0.478663232848 9.663390423059
835 8.352189779282 -0.081122816281 0.092431713468 -0.102549387022 -1.521982725710 0.501771429107 9.504108175635
836 8.367073297501 -0.101427713505 0.079933282091 -0.085556829693 -1.539767032117 0.457206728831 9.301281713247
837 8.373014688492 -0.114353615527 0.074234408641 -0.070173412551 -1.491211168617 0.329613430090 9.148581091762
838 8.382126569748 -0.124668712542 0.076495523953 -0.073511618399 -1.409001947790 0.150887171505 9.120731973052
839 8.398779153824 -0.123622989050 0.074655570923 -0.063468401003 -1.360640650392 -0.053516659532 9.131623581648
840 8.404209375381 -0.122951889100 0.057670537024 -0.071696765662 -1.427049817443 -0.140572409006 8.959096806049
841 8.411976099014 -0.122898076602 0.047943678199 -0.071785898335 -1.388059998751 -0.083024267871 8.852949961424
842 8.425479173660 -0.124504229055 0.036298353026 -0.056344823756 -1.298378182501 0.080437532756 8.950617173910
843 8.436803340912 -0.130585956878 0.022087733771 -0.047842057797 -1.165356438383 0.213165655285 8.901118154526
844 8.442306995392 -0.149008240561 0.015121628407 -0.040266567080 -0.993132183105 0.231410758831 8.878068430424
845 8.452105045319 -0.140790141556 0.011618913065 -0.044667965091 -0.924349411950 0.073465751354 8.965574351549
846 8.464700937271 -0.140096271579 0.010982201183 -0.042218522678 -0.815373245850 -0.056559098312 8.981648347378
847 8.473727941513 -0.138492382812 0.008970532519 -0.048868011479 -0.818220182061 -0.075765561769 8.917599116564
848 8.481822013855 -0.146148721275 0.000994306017 -0.046374497911 -0.780502352044 -0.041037974996 8.911412177682
849 8.494302034378 -0.148526890839 0.001321196948 -0.028366342020 -0.740371083766 -0.087848293874 8.953557738662
850 8.506608247757 -0.150296028751 -0.009383756292 -0.012349225697 -0.642848955318 -0.153236537073 8.852185730338
851 8.512308835983 -0.148244462605 -0.012146788003 -0.006665572837 -0.515838002712 -0.327109177262 8.859352077842
852 8.537664175034 -0.140224186535 -0.016987650247 0.007824709020 -0.417953821979 -0.512838307992 8.923818215132
853 8.539073944092 -0.133219581848 -0.021836071290 0.017841706243 -0.426892022006 -0.600234740004 8.903893827796
854 8.542105674744 -0.119779423419 -0.027628569416 0.020908053277 -0.523557277545 -0.699130087048 8.892870656848
855 8.552956342697 -0.113714515122 -0.035831109735 0.032291991270 -0.668183259666 -0.759795095623 8.867914740443
856 8.564999341965 -0.100283969041 -0.040681945308 0.041629131839 -0.753570222929 -0.788901219517 8.814778168201
857 8.573437452316 -0.087953882734 -0.044156063917 0.053931388113 -0.604898479208 -0.773344483003 8.850208202004
858 8.581931591034 -0.070325762011 -0.047784300491 0.060851637173 -0.399900616743 -0.786379900128 8.998499438167
859 8.597564935684 -0.070044881739 -0.038025304802 0.056383664296 -0.228808400687 -0.813353836834 9.095400665402
860 8.603000164032 -0.057255075571 -0.031947702797 0.048653822587 -0.217112123854 -0.921416010037 9.207705797553
861 8.612551927567 -0.040066031049 -0.031005497210 0.052389863089 -0.304920181576 -0.965795719028 9.290145691037
862 8.631474971771 -0.025440593246 -0.029032513041 0.050068631077 -0.406111200303 -0.907111747116 9.186850533485
863 8.634575128555 -0.009269504600 -0.025754852497 0.035076253368 -0.342457131632 -0.762486422807 9.086567861438
864 8.642138719559 -0.000841426527 -0.017457988422 0.032530577214 -0.181448566876 -0.661862127185 9.071622962952
865 8.653904914856 0.000772730364 -0.005618112569 0.023882013589 -0.025353479104 -0.670717954561 9.102730150223
866 8.667316675186 0.018696029595 -0.002441157225 -0.002039805455 -0.067316417377 -0.821944858432 9.007695354223
867 8.673014879227 0.044806653366 -0.001773243185 -0.004493357692 -0.089650853416 -0.953277634308 8.963386323452
868 8.682372093201 0.061250312388 -0.001959965498 -0.009855881698 -0.130714752590 -0.909296997786 8.907262408733
869 8.706151485443 0.078186081968 -0.003641755497 -0.024901419639 -0.150282103457 -0.797868655622 8.928669649959
870 8.708051681519 0.087498889984 0.002964857450 -0.032501998166 -0.083917877739 -0.669016707167 8.960801269412
871 8.712530851364 0.099021156309 0.007187491553 -0.026620261257 -0.079355542045 -0.611592188962 8.958152480721
872 8.724225521088 0.105925967356 -0.002889251763 -0.022836310903 -0.017951679529 -0.631935127303 8.957385910749
873 8.737985849380 0.115604810219 -0.001635323300 -0.013648331281 0.130128249452 -0.653959615231 8.975608758330
874 8.742596864700 0.125670593744 0.013773117023 -0.015325227072 0.325459750816 -0.594771247879 8.955021296740
875 8.751794099808 0.129060148666 0.025639079891 -0.025773794230 0.488712038398 -0.514136938043 9.080607209802
876 8.768198490143 0.140110120016 0.045458216532 -0.042122361757 0.491849215776 -0.465460292995 9.342413367033
877 8.775491714478 0.143982073280 0.058392703088 -0.051980273075 0.382541987635 -0.348109744638 9.477550122142
878 8.783537149429 0.143956124105 0.068827916990 -0.046770634801 0.299037480634 -0.176893457975 9.535503630638
879 8.793020248413 0.142879990642 0.082557719154 -0.027164109961 0.355382511467 -0.042454558918 9.547471711636
880 8.808588027954 0.133889691434 0.085819325831 -0.017946258202 0.482988198996 -0.070520983916 9.536142146587
881 8.812265396118 0.128621609258 0.097892833211 -0.012449315821 0.512396404669 -0.168561815210 9.563448058963
882 8.824420928955 0.130271495810 0.112252855803 -0.014463509286 0.472847811431 -0.251718303245 9.615394138098
883 8.837720394135 0.130761068042 0.126567904261 -0.010881400535 0.327257148363 -0.199558727648 9.532830868363
884 8.842666149139 0.130934115257 0.137616951828 -0.035615426976 0.146232541166 0.010247624586 9.382666769028
885 8.852706432343 0.132764788835 0.155160042811 -0.022466940863 0.266005609240 0.172446869742 9.556430815458
886 8.866615056992 0.134941864769 0.172718713286 -0.046579761052 0.114683222165 0.277542878352 9.810546129942
887 8.873567342758 0.123976132533 0.180921632273 -0.085719915020 -0.088457253976 0.233882596157 9.775035404563
888 8.882027387619 0.120940952806 0.189216596765 -0.059794108388 -0.032116297921 0.032661336078 9.855390765667
889 8.896577358246 0.122897843575 0.175726304329 -0.030639930496 -0.069562300933 -0.030424129700 9.908895127773
890 8.902702331543 0.115019247675 0.163949539672 -0.038417600914 -0.249179698024 0.038887031036 9.904538952112
891 8.912669420242 0.100989806598 0.154840113940 -0.020519210952 -0.349676725343 0.195569044501 9.911312366724
892 8.923941612244 0.089677447302 0.133325817008 0.030967432731 -0.579020383805 0.409803643897 9.858238359690
893 8.933864831924 0.077166806995 0.104453430688 0.038749588911 -0.963723904341 0.467779883444 9.901242291927
894 8.943124532700 0.075893624579 0.074164034609 0.070774379819 -1.016514540687 0.369294791669 9.901108975410
895 8.952101230621 0.066363352816 0.057980046277 0.088841497680 -0.944225925207 0.275306354910 9.815200513601
896 8.966727495193 0.059573415557 0.043180123569 0.070258658673 -0.902955911681 0.172456426285 9.890903245211
897 8.975079536438 0.056280375257 0.025296154208 0.061543834352 -0.943814427406 0.113379877796 10.002959285975
898 8.982562303543 0.054541701411 0.015082522591 0.096354666267 -0.927436157092 0.100025495058 10.050844473839
899 9.000668287277 0.053319139862 0.002778423690 0.103781099026 -1.077815433964 0.231185842026 10.009691770077
900 9.005874872208 0.043425654538 -0.027416475683 0.088020403504 -1.156558425352 0.311708634496 10.070477085114
901 9.012563705444 0.039257141641 -0.042968697706 0.112651564308 -0.999967724383 0.328395601250 10.170492539406
902 9.024357557297 0.042354597726 -0.052101625835 0.123866843060 -0.901278199330 0.229309689794 10.152832778692
903 9.034660816193 0.031540195458 -0.067642910173 0.094132940773 -0.862423597500 0.157077244129 10.117645404339
904 9.041869163513 0.034530994022 -0.076780706894 0.103359861843 -0.732824155614 -0.003555168216 10.152460895777
905 9.052622079849 0.038005584926 -0.086066492147 0.106818925270 -0.718022952452 -0.091640377678 10.177203973532
906 9.064073801041 0.040333607999 -0.089004632942 0.084501235861 -0.765685361400 -0.137458227631 10.046997005939
907 9.074272632599 0.044419899958 -0.104371122366 0.080432125452 -0.749744389728 -0.084499620879 10.017973766327
908 9.082074642181 0.046433274709 -0.107442163222 0.084606455691 -0.748193342686 0.011155415095 10.170482014418
909 9.097060918808 0.042377438494 -0.112648859535 0.077744904366 -0.663228182942 0.096605623076 10.315663701296
910 9.107199192047 0.045734656815 -0.109603077097 0.066432041566 -0.567567405961 0.095384048363 10.282998815775
911 9.113122463226 0.050065880531 -0.108713206786 0.050774780724 -0.447175976560 0.036816506849 10.227630361319
912 9.122089624405 0.051598550544 -0.104095942924 0.026156871228 -0.410113729052 0.028795166225 10.165404292345
913 9.134381532669 0.048967422289 -0.103757621597 0.019798114314 -0.393565743305 0.092383823739 10.072058172226
914 9.144604921341 0.041938212490 -0.084143049017 0.017974756106 -0.444026593119 0.096061439160 10.048445945978
915 9.152283430099 0.030597338644 -0.090064338029 0.005477801431 -0.577074722797 -0.001325747370 10.032597652674
916 9.163468599319 0.031547889497 -0.095280288827 -0.003043604835 -0.632705717236 -0.120654097293 9.952411276102
917 9.171290874481 0.031111443167 -0.090659854138 0.004261059825 -0.485713403486 -0.100588033749 9.808245835304
918 9.181799650192 0.028883702674 -0.078425416926 -0.009176845320 -0.335532895401 0.052367946608 9.764268341661
919 9.193395614624 0.022506721832 -0.065839550641 -0.048215170827 -0.316385712661 0.232682509962 9.870728012323
920 9.203246831894 0.021417967482 -0.056596817051 -0.066470357796 -0.424648993537 0.357373963483 9.965126631260
921 9.212041139603 0.018439779403 -0.055395972749 -0.071567535770 -0.520118566565 0.552091141753 10.057852946520
922 9.221881866455 0.014965039736 -0.058001967421 -0.086522666674 -0.561369540095 0.761723434255 10.089736644030
923 9.236745595932 0.009577991241 -0.052951128450 -0.096937057986 -0.477018995807 0.889896009341 10.054909458160
924 9.243669509888 -0.000912184688 -0.036351025358 -0.112609827580 -0.369142179340 0.982501141056 10.002407308817
925 9.250727891922 -0.004056475218 -0.028400064297 -0.140987897912 -0.387183945961 0.976740391105 9.977260773182
926 9.264299869537 -0.005336425548 -0.027571860730 -0.159225175122 -0.499094866142 0.900000948161 9.993120760918
927 9.273322582245 -0.012442347910 -0.022611829310 -0.156971524984 -0.586761512607 0.942730499804 9.988892054558
928 9.280754327774 -0.015052336284 -0.020156498814 -0.176486969715 -0.742378359810 1.074844171330 9.942755184174
929 9.294334888458 -0.032075825813 -0.014540776328 -0.196014215579 -0.788785883188 1.155030913353 9.935167837143
930 9.301718950272 -0.040433472378 -0.008756769109 -0.193515687778 -0.708503685370 1.131123329625 9.787354318500
931 9.312381744385 -0.053394544772 -0.002067607270 -0.202923620579 -0.851316080466 1.017898065001 9.647704682350
932 9.321315050125 -0.059822121513 -0.008133940514 -0.228770447841 -1.057241128609 0.773716365919 9.524522559643
933 9.332230806351 -0.063825302040 0.001143378150 -0.220009213776 -1.223844967112 0.548847654685 9.467620965242
934 9.341428518295 -0.069045780212 0.002106436107 -0.228964409192 -1.466849767864 0.418216763958 9.425159654617
935 9.351276636124 -0.077798267457 -0.007490059423 -0.241516103792 -1.677227178365 0.406766344272 9.389863522053
936 9.366602659225 -0.081501842361 -0.019036791459 -0.217313146002 -1.644508352280 0.390761930309 9.300519821048
937 9.373558998108 -0.093821409182 -0.024730490470 -0.200412908817 -1.575784418732 0.362528941892 9.261518892646
938 9.381023406982 -0.097907605433 -0.039252040023 -0.212920195205 -1.454496209174 0.346825111359 9.329688656330
939 9.394669294357 -0.102562519735 -0.040614962646 -0.212839451490 -1.327001180202 0.400566724241 9.416833804250
940 9.404728651047 -0.103389755827 -0.041534081956 -0.206716727630 -1.252841821164 0.499870462753 9.542166532874
941 9.411811351776 -0.098942801116 -0.050009321647 -0.210750151680 -1.283578294963 0.538959720656 9.570655921698
942 9.421020984650 -0.103822810787 -0.049987246539 -0.214042567802 -1.247696417570 0.546490495875 9.576159321070
943 9.434591531754 -0.102333820777 -0.056540774155 -0.197376322608 -1.103014667630 0.461913189255 9.549516482949
944 9.442867755890 -0.098636038248 -0.053608821048 -0.203574147610 -1.002307414636 0.354918863811 9.501179890037
945 9.451677083969 -0.101368915902 -0.053501953387 -0.198495066647 -0.852684402019 0.175684674047 9.498521745801
946 9.463657379150 -0.087848845996 -0.057819361956 -0.184472474888 -0.718508782983 0.011970317101 9.475392499566
947 9.476338386536 -0.084545294532 -0.054892418921 -0.178655931331 -0.623119280264 -0.000169461260 9.453563089371
948 9.481562852859 -0.069595327664 -0.051077082797 -0.182709661984 -0.445646344945 -0.007380556595 9.474950450063
949 9.495667695999 -0.056996499274 -0.038381789719 -0.185383442429 -0.313038766421 -0.022031095738 9.496940658689
950 9.503947496414 -0.044532518382 -0.035047349748 -0.198688229050 -0.259908699207 -0.011882170325 9.501249471903
951 9.511881589890 -0.033684508269 -0.022889249552 -0.207062888638 -0.172387410868 -0.078009650046 9.471417562366
952 9.521958827972 -0.024926603156 -0.012400585175 -0.212381504296 -0.123537679100 -0.183179598525 9.489105389714
953 9.533967971802 -0.010643808075 0.000653693435 -0.213416308827 -0.061673242142 -0.329776165411 9.568836268187
954 9.543467521667 0.005605946813 0.024076478444 -0.220754882237 -0.057429515747 -0.350025000125 9.574258391261
955 9.551172733307 0.020214397601 0.024946281420 -0.249107511058 -0.197393448874 -0.182561419923 9.592336227894
956 9.563052892685 0.031027437080 0.030742033596 -0.227789722125 -0.219054824710 0.004346207986 9.622674506307
957 9.577324867249 0.029438149926 0.044977990331 -0.208792611766 -0.129572937554 0.149804586936 9.513835018873
958 9.581484556198 0.030206992049 0.047196445131 -0.218268039056 -0.116933048023 0.174075154848 9.470884296298
959 9.593043565750 0.042249319639 0.049813000902 -0.208799253024 -0.034403767514 0.031122353487 9.449814439416
960 9.604594230652 0.049745398222 0.055747564108 -0.210003118350 -0.082430492258 -0.137360158861 9.424293097258
961 9.612062215805 0.062635127027 0.058418202855 -0.217520156843 -0.199538737480 -0.177866306752 9.463203978539
962 9.621683359146 0.070634755276 0.053072593563 -0.205542190366 -0.238635267857 -0.061868749280 9.472919127345
963 9.631858348846 0.074621590652 0.060424520229 -0.195052930938 -0.320620229691 0.148793146536 9.511918886304
964 9.641176700592 0.077679823367 0.059336901885 -0.195407813798 -0.445164644010 0.326799823008 9.543725985289
965 9.652523517609 0.076636038990 0.059153693047 -0.191062949704 -0.467932239957 0.439274926409 9.528689870238
966 9.669815540314 0.075414854794 0.066983107852 -0.178209469019 -0.490715404116 0.511874577217 9.546654855609
967 9.673012733459 0.075188794030 0.053602367044 -0.177375550057 -0.592879892886 0.632797957063 9.527835007310
968 9.681089639664 0.072743995504 0.052456841591 -0.174207303822 -0.704483212978 0.685575656444 9.500470038056
969 9.695282936096 0.071560311946 0.043625616324 -0.163194650016 -0.806196771786 0.750819034874 9.595675572753
970 9.707140207291 0.074332071752 0.038625989108 -0.155398711978 -0.816750849858 0.885147631690 9.666414602995
971 9.712101221085 0.064037447788 0.030139322790 -0.149874966338 -0.834966388419 1.039433360249 9.593588701487
972 9.720976829529 0.055943019326 0.019483570022 -0.140938529563 -0.869708351120 1.092746006772 9.576274511218
973 9.734799385071 0.040874113187 0.016474020099 -0.128625021434 -0.862398089021 1.041838246956 9.557345319986
974 9.741599321365 0.030175063244 0.000837857787 -0.113961306932 -0.927460934669 0.853993228152 9.577926349640
975 9.751817941666 0.035617669857 -0.012787558086 -0.102500834267 -1.002690626532 0.654449027181 9.611539068818
976 9.767382383347 0.031405645486 -0.030651515247 -0.108612580909 -1.108504326046 0.621784945652 9.656160925627
977 9.775571107864 0.030230009667 -0.038899291853 -0.109110924928 -1.193190719783 0.724704054147 9.647908750176
978 9.781832695007 0.017088724492 -0.056869969994 -0.096809850432 -1.208785682470 0.918370853215 9.578392372727
979 9.794188022614 0.011581150273 -0.061256058990 -0.082696078695 -1.207449301332 0.964588049725 9.603275198936
980 9.803054571152 0.004733126454 -0.070792364478 -0.090515127978 -1.236347849071 0.841663569957 9.670496544242
981 9.812809467316 -0.000894193917 -0.073968234013 -0.104909680117 -1.363481520116 0.657006891668 9.723983949423
982 9.820955038071 0.001165036749 -0.095723031036 -0.107655091273 -1.426285440177 0.554967679493 9.761533598900
983 9.833266019821 0.003872549615 -0.104703593061 -0.095322891082 -1.314811782092 0.529571175389 9.726029890180
984 9.842273950577 -0.001735271944 -0.112653212138 -0.109219540288 -1.184261436760 0.535886899196 9.747512560487
985 9.851714849472 -0.000730865225 -0.121892691678 -0.134798312064 -1.085830577910 0.411828790493 9.734270955920
986 9.863966703415 0.008190091081 -0.118505633470 -0.137323654568 -0.920003907457 0.210986873098 9.643433291316
987 9.872926950455 0.020220479179 -0.120528429153 -0.161422449469 -0.834952135831 0.008711176169 9.647126977444
988 9.881174802780 0.037215995113 -0.127964083108 -0.183206374817 -0.722254728600 -0.134378745826 9.732318570614
989 9.898731708527 0.054468793215 -0.119935193376 -0.205656123726 -0.644867194891 -0.247747002281 9.884271333218
990 9.903458356857 0.073525017428 -0.129575586850 -0.232214431118 -0.687045134827 -0.134307053480 10.024033820629
991 9.913376092911 0.088861213395 -0.132653510313 -0.256600098403 -0.735399342477 0.248740298040 10.165051120520
992 9.920768976212 0.094024258833 -0.132623441560 -0.258529109204 -0.639101620987 0.668357360512 10.327349946499
993 9.934745073318 0.094440735616 -0.126850956673 -0.267930933380 -0.525671521090 1.016054730266 10.424921264648
994 9.953698158264 0.079635474102 -0.114464919016 -0.277349735207 -0.525318422355 1.181308812127 10.467098400593
995 9.965793848038 0.064298425091 -0.108399045324 -0.273165326568 -0.585139750801 1.093737840727 10.500649724007
996 9.979136705399 0.058114664909 -0.112175724000 -0.246459613210 -0.650429724231 0.884830712602 10.402338148355
997 9.981708765030 0.040062381686 -0.113576039068 -0.225749307966 -0.693479410931 0.685164231732 10.247003356218
998 9.988487243652 0.025342901008 -0.125163943991 -0.205282215909 -0.767023935243 0.586382137947 10.101781908274
999 9.998450994492 0.007187859299 -0.121053463040 -0.172092254574 -0.780946667343 0.512687267102 10.069377808571
1000 10.009602785110 -0.013018997187 -0.126340328824 -0.147005643290 -0.879019091874 0.408527854532 10.043195146322
1001 10.014236688614 -0.029279660632 -0.122778858531 -0.137066576299 -1.064797850847 0.184666454103 9.961361024380
1002 10.021826267242 -0.042354493697 -0.127883663965 -0.119392865587 -1.214791796207 -0.143768807715 9.907190079689
1003 10.040621280670 -0.050729390472 -0.124492078383 -0.107756299717 -1.341128053218 -0.524701468013 9.841939830780
1004 10.044391632080 -0.047234786328 -0.130926283899 -0.115359374958 -1.495408007652 -0.868440528587 9.713066028357
1005 10.050793886185 -0.048984004628 -0.141840126105 -0.109391106119 -1.531073245704 -1.071235196739 9.525754567981
1006 10.063654661179 -0.044719988278 -0.147153365506 -0.104542255433 -1.400057023466 -1.196921097189 9.391263345480
1007 10.073490858078 -0.032910491707 -0.144111619423 -0.120842132885 -1.340653697848 -1.241507285982 9.371119102836
1008 10.081811189651 -0.022124980576 -0.150568470130 -0.140172388052 -1.288579272330 -1.183327051699 9.372303748727
1009 10.093775272369 -0.009088636431 -0.147951931004 -0.152488442829 -1.141163071990 -1.066038337648 9.403277619481
1010 10.104261636734 0.008186057848 -0.152103965591 -0.174006468186 -1.044560929835 -0.896686234698 9.506482145190
1011 10.111104965210 0.018547335741 -0.144084538403 -0.209036806993 -1.012110710219 -0.696915673390 9.650490880609
1012 10.121836900711 0.031013767573 -0.145637976912 -0.230005671889 -0.995205605775 -0.539736230895 9.701123675108
1013 10.134855031967 0.038735832019 -0.136020087148 -0.237859583615 -0.884547415003 -0.399340124577 9.732955917120
1014 10.142151117325 0.049731121182 -0.127423419794 -0.249389290146 -0.754522807449 -0.304068680797 9.741051387191
1015 10.151378393173 0.049124602889 -0.129496490966 -0.262844695172 -0.706130008176 -0.266547152773 9.646731705666
1016 10.164488792419 0.048024663263 -0.118575782797 -0.254723202335 -0.627782069296 -0.234454709664 9.584597437978
1017 10.175509929657 0.049773935658 -0.120181793770 -0.240924016502 -0.587360194400 -0.206444189530 9.608508456945
1018 10.181256771088 0.045031673833 -0.124796544274 -0.224124812991 -0.564165824801 -0.105665691867 9.716077929139
1019 10.194453477859 0.045901387344 -0.123866127335 -0.195441702523 -0.414730471261 0.027069680295 9.732580525875
1020 10.208632469177 0.033377876479 -0.127930211027 -0.172131353107 -0.239352355767 0.197718426157 9.707059183717
1021 10.212541818619 0.029776953951 -0.130884364079 -0.145730754786 -0.139205786800 0.418574248105 9.708892285824
1022 10.220702409744 0.017300544627 -0.134120479310 -0.108499379918 -0.036049304190 0.483728273772 9.701454627514
1023 10.233654737473 0.005298166014 -0.133298336514 -0.081856949925 -0.013430876196 0.393089670315 9.707098360062
1024 10.243297338486 0.001798388602 -0.151483232675 -0.058399240316 -0.076780857677 0.191719895527 9.655267471075
1025 10.252040386200 0.005880024060 -0.148287356143 -0.030992112744 0.026985823000 0.018481666816 9.597896345258
1026 10.263758897781 0.011608127262 -0.142958287578 -0.014757591971 0.079926952058 -0.051434269608 9.535000185370
1027 10.274578094482 0.012471270255 -0.148817175398 -0.013056594572 0.055911916606 -0.006721373250 9.448308196664
1028 10.281556606293 0.018270631223 -0.148112519618 0.006426301857 0.047633515480 0.030626788256 9.380660004616
1029 10.294550657272 0.016823059609 -0.151740394168 0.031724615202 0.107249254910 0.064041483253 9.324818510413
1030 10.302826166153 0.024281277612 -0.152627426548 0.041442107191 0.169967796486 0.039478910873 9.313179042935
1031 10.311546087265 0.024086714969 -0.152989283561 0.036737920247 0.215076671541 0.032681545517 9.327433385253
1032 10.321178913116 0.024848632873 -0.154044427985 0.057026434869 0.271138130687 0.031134776536 9.310516805649
1033 10.334543704987 0.025615820924 -0.149525443089 0.064925150120 0.226797451861 0.009162177508 9.252076808810
1034 10.343502044678 0.028151096186 -0.152095659857 0.073800163581 0.165139969792 0.021596796080 9.242958660722
1035 10.350350141525 0.025097809044 -0.153306948745 0.093624876216 0.182016020883 0.076318196738 9.269145416021
1036 10.361869096756 0.020688596320 -0.147598812488 0.107966897503 0.265217258390 0.104209671216 9.287881649137
1037 10.375181674957 0.018514360397 -0.144719835481 0.112780278212 0.322434839979 0.029164746800 9.311353542209
1038 10.381480216980 0.021769182254 -0.150202535152 0.118960051975 0.352698785663 -0.088650796814 9.334244806767
1039 10.394044399261 0.020645933727 -0.140663474957 0.119966743512 0.227294812370 -0.181091265455 9.357450651526
1040 10.403727769852 0.028917187763 -0.148506650814 0.120326228647 0.091161362808 -0.133700852534 9.354213048220
1041 10.412857532501 0.027248084839 -0.155752762601 0.124487392884 0.051160510280 -0.010025651946 9.431607379317
1042 10.421959400177 0.022550911580 -0.157616342863 0.134722520164 0.056165411677 0.108135436988 9.495576503277
1043 10.440496444702 0.017394268132 -0.166989854307 0.137058420368 0.013877671994 0.030182160039 9.563172070384
1044 10.443764686584 0.022069453667 -0.168914354379 0.146889695914 0.091020737272 -0.218177705817 9.578626846075
1045 10.451546430588 0.024331669613 -0.169766998692 0.151334312036 0.168155981898 -0.476760000698 9.583354904652
1046 10.464621782303 0.027339787047 -0.165217404088 0.135495785631 0.142343503218 -0.637842276916 9.617934753299
1047 10.472917556763 0.032075457548 -0.170059646806 0.128676345541 0.070599912191 -0.648610801622 9.680843777061
1048 10.480535030365 0.039910714662 -0.169987092311 0.137040668735 -0.109165561069 -0.586026481055 9.733551163673
1049 10.494816780090 0.038249638673 -0.178076044648 0.141498342669 -0.204173752237 -0.541813892797 9.801476513743
1050 10.509158134460 0.040561012828 -0.187556781615 0.153403271953 -0.121692864290 -0.549501190670 9.959660654068
1051 10.512492656708 0.045688613256 -0.183389367273 0.168002587890 0.087924298542 -0.605319990367 10.115350956917
1052 10.520559072495 0.045021637045 -0.183538803900 0.160043031893 0.164594826568 -0.604974383377 10.243489179611
1053 10.533812999725 0.054485854091 -0.192329266157 0.157592041518 0.137292166706 -0.658087310940 10.266314370632
1054 10.542844772339 0.062031837816 -0.188439319911 0.180105306820 0.075790197733 -0.737962396368 10.202716544867
1055 10.550119876862 0.067006443801 -0.203474994793 0.191635129864 0.026432210449 -0.691342034340 10.181347310543
1056 10.563528299332 0.068332531576 -0.213815649832 0.196544733913 0.032093464087 -0.601958645359 10.192734178305
1057 10.574436187744 0.076121507945 -0.223049278740 0.217804049815 0.200873949174 -0.524979064576 10.235784888268
1058 10.580351352692 0.080297852199 -0.223494858880 0.241144426372 0.415035403557 -0.520741404667 10.311057264805
1059 10.592232227325 0.089713874352 -0.211040402950 0.231006088352 0.518120572977 -0.505224685036 10.315464895964
1060 10.604789495468 0.099271876280 -0.216788320175 0.220763454287 0.565185359940 -0.417602623589 10.315347951651
1061 10.611974239349 0.114509818248 -0.208487097254 0.220629214323 0.533872021772 -0.246053063907 10.340719020367
1062 10.620482683182 0.119346018919 -0.202954912722 0.195628489984 0.319606395587 -0.037535725795 10.375067903996
1063 10.637175559998 0.134268492810 -0.203916763284 0.176599904390 0.086945913183 0.127157964399 10.376963571310
1064 10.640344381332 0.142246474553 -0.199779592465 0.169941069558 0.046799104102 0.155093740672 10.346696044207
1065 10.650279521942 0.159807691676 -0.195335226014 0.153660766341 0.130342604723 0.174313812610 10.316619136333
1066 10.664556741714 0.172184849356 -0.180602052942 0.114512864238 0.240826310925 0.204953551535 10.285895526409
1067 10.677376270294 0.183635626450 -0.165632074915 0.084975977615 0.269523842353 0.268409180325 10.247862896919
1068 10.679834604263 0.183927292524 -0.140710046986 0.074335076130 0.212362320945 0.396356144249 10.249290786982
1069 10.690506219864 0.183926177325 -0.124922070708 0.054965397857 0.098376589380 0.590046441816 10.189518209696
1070 10.703402519226 0.185306427139 -0.103694188429 0.034148482946 0.005304957778 0.819679573998 10.138783088923
1071 10.714695930481 0.170346652348 -0.080206730478 0.031988877764 0.062365748906 0.922206261232 10.082309510708
1072 10.720845222473 0.168885592239 -0.059618398012 0.022980525237 0.132345321765 0.925313471630 10.021167515516
